[
    {
        "relPath": "./data/clinical-trials/sdtm/ae.csv",
        "path": "ae.csv",
        "name": "ae",
        "nRows": 357,
        "cols": [
            "USUBJID",
            "AESEQ",
            "AESTDT",
            "AESTDY",
            "AEENDT",
            "AEENDY",
            "AETERM",
            "AEDECOD",
            "AEBODSYS",
            "AESER",
            "AEONGO",
            "AESEV",
            "AEREL",
            "AEOUT"
        ],
        "nCols": 14
    },
    {
        "relPath": "./data/clinical-trials/sdtm/cm.csv",
        "path": "cm.csv",
        "name": "cm",
        "nRows": 307,
        "cols": [
            "USUBJID",
            "CMSEQ",
            "CMSTDT",
            "CMSTDY",
            "CMENDT",
            "CMENDY",
            "CMTRT",
            "PREFTERM",
            "ATCTEXT2",
            "CMONGO",
            "CMDOSE",
            "CMROUTE",
            "CMINDC"
        ],
        "nCols": 13
    },
    {
        "relPath": "./data/clinical-trials/sdtm/dm.csv",
        "path": "dm.csv",
        "name": "dm",
        "nRows": 150,
        "cols": [
            "USUBJID",
            "SITE",
            "SITEID",
            "AGE",
            "SEX",
            "RACE",
            "ARM",
            "ARMCD",
            "SBJTSTAT",
            "RFSTDTC",
            "RFENDTC",
            "RFENDY",
            "SAFFL",
            "SAFFN"
        ],
        "nCols": 14
    },
    {
        "relPath": "./data/clinical-trials/sdtm/lb-trend.csv",
        "path": "lb-trend.csv",
        "name": "lb-trend",
        "nRows": 13708,
        "cols": [
            "USUBJID",
            "VISIT",
            "VISITNUM",
            "LBDT",
            "LBDY",
            "LBCAT",
            "LBTEST",
            "LBSTRESU",
            "LBSTRESN",
            "LBSTNRLO",
            "LBSTNRHI"
        ],
        "nCols": 11
    },
    {
        "relPath": "./data/clinical-trials/sdtm/lb.csv",
        "path": "lb.csv",
        "name": "lb",
        "nRows": 13708,
        "cols": [
            "USUBJID",
            "VISIT",
            "VISITNUM",
            "LBDT",
            "LBDY",
            "LBCAT",
            "LBTEST",
            "LBSTRESU",
            "LBSTRESN",
            "LBSTNRLO",
            "LBSTNRHI"
        ],
        "nCols": 11
    },
    {
        "relPath": "./data/clinical-trials/sdtm/rs.csv",
        "path": "rs.csv",
        "name": "rs",
        "nRows": 404,
        "cols": [
            "USUBJID",
            "VISIT",
            "VISITNUM",
            "RSDT",
            "RSDY",
            "RSTESTCD",
            "RSTEST",
            "RSCAT",
            "RSSTRESC",
            "RSSTRESN",
            "RSPROB",
            "RSCOLOR"
        ],
        "nCols": 12
    },
    {
        "relPath": "./data/clinical-trials/sdtm/sv.csv",
        "path": "sv.csv",
        "name": "sv",
        "nRows": 1202,
        "cols": [
            "USUBJID",
            "VISIT",
            "VISITNUM",
            "SVDT",
            "SVDY",
            "SVSTATUS"
        ],
        "nCols": 6
    },
    {
        "relPath": "./data/clinical-trials/sdtm/vs.csv",
        "path": "vs.csv",
        "name": "vs",
        "nRows": 3170,
        "cols": [
            "USUBJID",
            "VISIT",
            "VISITNUM",
            "VSDT",
            "VSDY",
            "VSCAT",
            "VSTEST",
            "VSSTRESU",
            "VSSTRESN",
            "VSSTNRLO",
            "VSSTNRHI"
        ],
        "nCols": 11
    }
]