"USUBJID","VISIT","VISITNUM","LBDT","LBDY","LBCAT","LBTEST","LBSTRESU","LBSTRESN","LBSTNRLO","LBSTNRHI"
"01-001","Screening",0,"2015-05-21",1,"Serum","Albumin","g/L",65.6644779389482,"35","55"
"01-001","Screening",0,"2015-05-21",1,"Urine","Albumin/Creatinine","mg/g",13.0189048129842,"0","30"
"01-001","Screening",0,"2015-05-21",1,"Serum","Alkaline phosphatase (ALP)","μkat/L",0.966124970947602,"0.5","1.5"
"01-001","Screening",0,"2015-05-21",1,"Serum","Aminotransferase, alanine (ALT)","pkat/L",0.370483193669997,"0","0.58"
"01-001","Screening",0,"2015-05-21",1,"Serum","Aminotransferase, aspartate (AST)","pkat/L",0.0856340183822079,"0","0.58"
"01-001","Screening",0,"2015-05-21",1,"Serum","Bicarbonate","mmol/L",26.4444041925371,"23","28"
"01-001","Screening",0,"2015-05-21",1,"Serum","Blood Urea Nitrogen","mmol/L",4.92333162890347,"2.9","7.1"
"01-001","Screening",0,"2015-05-21",1,"Serum","Calcium","mmol/L",2.40753520517999,"2.2","2.6"
"01-001","Screening",0,"2015-05-21",1,"Serum","Chloride","mmol/L",99.8994731754984,"98","106"
"01-001","Screening",0,"2015-05-21",1,"Serum","Creatinine","μmol/L",69.6406029254304,"61.9","115"
"01-001","Screening",0,"2015-05-21",1,"Serum","Cystatin C","mg/L",0.93493863401344,"0.51","0.98"
"01-001","Screening",0,"2015-05-21",1,"Serum","Direct Bilirubin","μmol/L",7.40064888856829,"0","5.1"
"01-001","Screening",0,"2015-05-21",1,"Serum","eGFR","μmol/L",84.5814744516694,"61.9","115"
"01-001","Screening",0,"2015-05-21",1,"Serum","eGFRcys","μmol/L",31.7473259113718,"61.9","115"
"01-001","Screening",0,"2015-05-21",1,"Serum","IgE","mg/L",0.0901149071550989,"0.1","0.4"
"01-001","Screening",0,"2015-05-21",1,"Serum","Magnesium","mmol/L",0.878534004688699,"0.62","0.99"
"01-001","Screening",0,"2015-05-21",1,"Serum","Phosphorus","mmol/L",0.981085693950264,"0.97","1.45"
"01-001","Screening",0,"2015-05-21",1,"Blood","Platelet count","x 109/L",409.729144676078,"150","350"
"01-001","Screening",0,"2015-05-21",1,"Serum","Potassium","mmol/L",4.04035321731168,"3.5","5"
"01-001","Screening",0,"2015-05-21",1,"Blood","RBC count","x 1012 cells/L",3.55998297317238,"4.2","5.9"
"01-001","Screening",0,"2015-05-21",1,"Serum","Sodium","mmol/L",146.61183460858,"136","145"
"01-001","Screening",0,"2015-05-21",1,"Serum","Total Bilirubin","μmol/L",11.7813751413614,"5.1","20.5"
"01-001","Screening",0,"2015-05-21",1,"Blood","WBC count","x 109 cells/L",7.65010692346315,"4.5","11"
"01-001","Early Termination",6.9,"2015-05-26",6,"Serum","Albumin","g/L",34.7712962309709,"35","55"
"01-001","Early Termination",6.9,"2015-05-26",6,"Urine","Albumin/Creatinine","mg/g",0,"0","30"
"01-001","Early Termination",6.9,"2015-05-26",6,"Serum","Alkaline phosphatase (ALP)","μkat/L",1.71028926816174,"0.5","1.5"
"01-001","Early Termination",6.9,"2015-05-26",6,"Serum","Aminotransferase, alanine (ALT)","pkat/L",0,"0","0.58"
"01-001","Early Termination",6.9,"2015-05-26",6,"Serum","Aminotransferase, aspartate (AST)","pkat/L",0.364619082360221,"0","0.58"
"01-001","Early Termination",6.9,"2015-05-26",6,"Serum","Bicarbonate","mmol/L",26.6144611216397,"23","28"
"01-001","Early Termination",6.9,"2015-05-26",6,"Serum","Blood Urea Nitrogen","mmol/L",7.59898521743427,"2.9","7.1"
"01-001","Early Termination",6.9,"2015-05-26",6,"Serum","Calcium","mmol/L",2.29123349958877,"2.2","2.6"
"01-001","Early Termination",6.9,"2015-05-26",6,"Serum","Chloride","mmol/L",98.5689525460522,"98","106"
"01-001","Early Termination",6.9,"2015-05-26",6,"Serum","Creatinine","μmol/L",96.3403764820271,"61.9","115"
"01-001","Early Termination",6.9,"2015-05-26",6,"Serum","Cystatin C","mg/L",0.271379196622067,"0.51","0.98"
"01-001","Early Termination",6.9,"2015-05-26",6,"Serum","Direct Bilirubin","μmol/L",0,"0","5.1"
"01-001","Early Termination",6.9,"2015-05-26",6,"Serum","eGFR","μmol/L",115.188337032953,"61.9","115"
"01-001","Early Termination",6.9,"2015-05-26",6,"Serum","eGFRcys","μmol/L",157.761253224979,"61.9","115"
"01-001","Early Termination",6.9,"2015-05-26",6,"Serum","IgE","mg/L",0.343341640959128,"0.1","0.4"
"01-001","Early Termination",6.9,"2015-05-26",6,"Serum","Magnesium","mmol/L",0.772251083317627,"0.62","0.99"
"01-001","Early Termination",6.9,"2015-05-26",6,"Serum","Phosphorus","mmol/L",1.29230622919395,"0.97","1.45"
"01-001","Early Termination",6.9,"2015-05-26",6,"Blood","Platelet count","x 109/L",149.238436342834,"150","350"
"01-001","Early Termination",6.9,"2015-05-26",6,"Serum","Potassium","mmol/L",5.14568419787287,"3.5","5"
"01-001","Early Termination",6.9,"2015-05-26",6,"Blood","RBC count","x 1012 cells/L",6.5428613683089,"4.2","5.9"
"01-001","Early Termination",6.9,"2015-05-26",6,"Serum","Sodium","mmol/L",136.492773814391,"136","145"
"01-001","Early Termination",6.9,"2015-05-26",6,"Serum","Total Bilirubin","μmol/L",20.0935286541202,"5.1","20.5"
"01-001","Early Termination",6.9,"2015-05-26",6,"Blood","WBC count","x 109 cells/L",10.8779533378504,"4.5","11"
"01-002","Screening",0,"2015-05-30",1,"Serum","Albumin","g/L",49.7904918862357,"35","55"
"01-002","Screening",0,"2015-05-30",1,"Urine","Albumin/Creatinine","mg/g",28.7857301764837,"0","30"
"01-002","Screening",0,"2015-05-30",1,"Serum","Alkaline phosphatase (ALP)","μkat/L",0.984532635219926,"0.5","1.5"
"01-002","Screening",0,"2015-05-30",1,"Serum","Aminotransferase, alanine (ALT)","pkat/L",0.595471840671364,"0","0.58"
"01-002","Screening",0,"2015-05-30",1,"Serum","Aminotransferase, aspartate (AST)","pkat/L",0.378530874832094,"0","0.58"
"01-002","Screening",0,"2015-05-30",1,"Serum","Bicarbonate","mmol/L",22.6540923293423,"23","28"
"01-002","Screening",0,"2015-05-30",1,"Serum","Blood Urea Nitrogen","mmol/L",4.05444553604748,"2.9","7.1"
"01-002","Screening",0,"2015-05-30",1,"Serum","Calcium","mmol/L",2.53944508842028,"2.2","2.6"
"01-002","Screening",0,"2015-05-30",1,"Serum","Chloride","mmol/L",96.0256666958016,"98","106"
"01-002","Screening",0,"2015-05-30",1,"Serum","Creatinine","μmol/L",84.7721630599579,"61.9","115"
"01-002","Screening",0,"2015-05-30",1,"Serum","Cystatin C","mg/L",0.961887637672527,"0.51","0.98"
"01-002","Screening",0,"2015-05-30",1,"Serum","Direct Bilirubin","μmol/L",2.97410326532059,"0","5.1"
"01-002","Screening",0,"2015-05-30",1,"Serum","eGFR","μmol/L",83.3553034194645,"61.9","115"
"01-002","Screening",0,"2015-05-30",1,"Serum","eGFRcys","μmol/L",83.0059718925246,"61.9","115"
"01-002","Screening",0,"2015-05-30",1,"Serum","IgE","mg/L",0.427033437431432,"0.1","0.4"
"01-002","Screening",0,"2015-05-30",1,"Serum","Magnesium","mmol/L",0.971803974130759,"0.62","0.99"
"01-002","Screening",0,"2015-05-30",1,"Serum","Phosphorus","mmol/L",1.17737291944912,"0.97","1.45"
"01-002","Screening",0,"2015-05-30",1,"Blood","Platelet count","x 109/L",194.723032230277,"150","350"
"01-002","Screening",0,"2015-05-30",1,"Serum","Potassium","mmol/L",3.6821185241713,"3.5","5"
"01-002","Screening",0,"2015-05-30",1,"Blood","RBC count","x 1012 cells/L",3.17059979134189,"4.2","5.9"
"01-002","Screening",0,"2015-05-30",1,"Serum","Sodium","mmol/L",148.303660577472,"136","145"
"01-002","Screening",0,"2015-05-30",1,"Serum","Total Bilirubin","μmol/L",0.796598263959219,"5.1","20.5"
"01-002","Screening",0,"2015-05-30",1,"Blood","WBC count","x 109 cells/L",6.19022740382795,"4.5","11"
"01-002","Visit 2",2,"2015-09-15",109,"Serum","Albumin","g/L",53.6028159242824,"35","55"
"01-002","Visit 2",2,"2015-09-15",109,"Urine","Albumin/Creatinine","mg/g",0,"0","30"
"01-002","Visit 2",2,"2015-09-15",109,"Serum","Alkaline phosphatase (ALP)","μkat/L",1.33826520759727,"0.5","1.5"
"01-002","Visit 2",2,"2015-09-15",109,"Serum","Aminotransferase, alanine (ALT)","pkat/L",0.2566415997213,"0","0.58"
"01-002","Visit 2",2,"2015-09-15",109,"Serum","Aminotransferase, aspartate (AST)","pkat/L",0.0561324936231819,"0","0.58"
"01-002","Visit 2",2,"2015-09-15",109,"Serum","Bicarbonate","mmol/L",24.9859233147576,"23","28"
"01-002","Visit 2",2,"2015-09-15",109,"Serum","Blood Urea Nitrogen","mmol/L",0,"2.9","7.1"
"01-002","Visit 2",2,"2015-09-15",109,"Serum","Calcium","mmol/L",2.33620791725856,"2.2","2.6"
"01-002","Visit 2",2,"2015-09-15",109,"Serum","Chloride","mmol/L",103.645385648093,"98","106"
"01-002","Visit 2",2,"2015-09-15",109,"Serum","Creatinine","μmol/L",76.9128870128716,"61.9","115"
"01-002","Visit 2",2,"2015-09-15",109,"Serum","Cystatin C","mg/L",0.954966794599083,"0.51","0.98"
"01-002","Visit 2",2,"2015-09-15",109,"Serum","Direct Bilirubin","μmol/L",2.69651829180411,"0","5.1"
"01-002","Visit 2",2,"2015-09-15",109,"Serum","eGFR","μmol/L",97.3696599409975,"61.9","115"
"01-002","Visit 2",2,"2015-09-15",109,"Serum","eGFRcys","μmol/L",45.3166102179049,"61.9","115"
"01-002","Visit 2",2,"2015-09-15",109,"Serum","IgE","mg/L",0.198065916622782,"0.1","0.4"
"01-002","Visit 2",2,"2015-09-15",109,"Serum","Magnesium","mmol/L",1.12416500555456,"0.62","0.99"
"01-002","Visit 2",2,"2015-09-15",109,"Serum","Phosphorus","mmol/L",1.55221205187159,"0.97","1.45"
"01-002","Visit 2",2,"2015-09-15",109,"Blood","Platelet count","x 109/L",313.185649640285,"150","350"
"01-002","Visit 2",2,"2015-09-15",109,"Serum","Potassium","mmol/L",3.3974851948386,"3.5","5"
"01-002","Visit 2",2,"2015-09-15",109,"Blood","RBC count","x 1012 cells/L",4.74583568737519,"4.2","5.9"
"01-002","Visit 2",2,"2015-09-15",109,"Serum","Sodium","mmol/L",138.638098387511,"136","145"
"01-002","Visit 2",2,"2015-09-15",109,"Serum","Total Bilirubin","μmol/L",6.04893289422167,"5.1","20.5"
"01-002","Visit 2",2,"2015-09-15",109,"Blood","WBC count","x 109 cells/L",1.82336021364899,"4.5","11"
"01-002","Visit 3",3,"2015-11-06",161,"Serum","Albumin","g/L",31.718842959157,"35","55"
"01-002","Visit 3",3,"2015-11-06",161,"Urine","Albumin/Creatinine","mg/g",4.80332308601562,"0","30"
"01-002","Visit 3",3,"2015-11-06",161,"Serum","Alkaline phosphatase (ALP)","μkat/L",0,"0.5","1.5"
"01-002","Visit 3",3,"2015-11-06",161,"Serum","Aminotransferase, alanine (ALT)","pkat/L",0.100836507759941,"0","0.58"
"01-002","Visit 3",3,"2015-11-06",161,"Serum","Aminotransferase, aspartate (AST)","pkat/L",0.301326648696388,"0","0.58"
"01-002","Visit 3",3,"2015-11-06",161,"Serum","Bicarbonate","mmol/L",29.0584103805134,"23","28"
"01-002","Visit 3",3,"2015-11-06",161,"Serum","Blood Urea Nitrogen","mmol/L",3.85159429315037,"2.9","7.1"
"01-002","Visit 3",3,"2015-11-06",161,"Serum","Calcium","mmol/L",2.13686521160001,"2.2","2.6"
"01-002","Visit 3",3,"2015-11-06",161,"Serum","Chloride","mmol/L",97.7113677981767,"98","106"
"01-002","Visit 3",3,"2015-11-06",161,"Serum","Creatinine","μmol/L",55.3562462602955,"61.9","115"
"01-002","Visit 3",3,"2015-11-06",161,"Serum","Cystatin C","mg/L",0.746238816311145,"0.51","0.98"
"01-002","Visit 3",3,"2015-11-06",161,"Serum","Direct Bilirubin","μmol/L",3.9296070932396,"0","5.1"
"01-002","Visit 3",3,"2015-11-06",161,"Serum","eGFR","μmol/L",83.0391976804046,"61.9","115"
"01-002","Visit 3",3,"2015-11-06",161,"Serum","eGFRcys","μmol/L",74.3069269794623,"61.9","115"
"01-002","Visit 3",3,"2015-11-06",161,"Serum","IgE","mg/L",0.282240961135727,"0.1","0.4"
"01-002","Visit 3",3,"2015-11-06",161,"Serum","Magnesium","mmol/L",0.625778562444919,"0.62","0.99"
"01-002","Visit 3",3,"2015-11-06",161,"Serum","Phosphorus","mmol/L",1.17671776433475,"0.97","1.45"
"01-002","Visit 3",3,"2015-11-06",161,"Blood","Platelet count","x 109/L",14.2239658526287,"150","350"
"01-002","Visit 3",3,"2015-11-06",161,"Serum","Potassium","mmol/L",4.22048420107317,"3.5","5"
"01-002","Visit 3",3,"2015-11-06",161,"Blood","RBC count","x 1012 cells/L",3.55325644891869,"4.2","5.9"
"01-002","Visit 3",3,"2015-11-06",161,"Serum","Sodium","mmol/L",138.211680983504,"136","145"
"01-002","Visit 3",3,"2015-11-06",161,"Serum","Total Bilirubin","μmol/L",8.97269526389019,"5.1","20.5"
"01-002","Visit 3",3,"2015-11-06",161,"Blood","WBC count","x 109 cells/L",14.282543701825,"4.5","11"
"01-003","Screening",0,"2015-08-13",1,"Serum","Albumin","g/L",66.2390857734728,"35","55"
"01-003","Screening",0,"2015-08-13",1,"Urine","Albumin/Creatinine","mg/g",0,"0","30"
"01-003","Screening",0,"2015-08-13",1,"Serum","Alkaline phosphatase (ALP)","μkat/L",1.09082703205244,"0.5","1.5"
"01-003","Screening",0,"2015-08-13",1,"Serum","Aminotransferase, alanine (ALT)","pkat/L",0.269530800272395,"0","0.58"
"01-003","Screening",0,"2015-08-13",1,"Serum","Aminotransferase, aspartate (AST)","pkat/L",0.382814718180833,"0","0.58"
"01-003","Screening",0,"2015-08-13",1,"Serum","Bicarbonate","mmol/L",23.8732815996932,"23","28"
"01-003","Screening",0,"2015-08-13",1,"Serum","Blood Urea Nitrogen","mmol/L",6.12069590403273,"2.9","7.1"
"01-003","Screening",0,"2015-08-13",1,"Serum","Calcium","mmol/L",2.5726787962475,"2.2","2.6"
"01-003","Screening",0,"2015-08-13",1,"Serum","Chloride","mmol/L",107.221519991636,"98","106"
"01-003","Screening",0,"2015-08-13",1,"Serum","Creatinine","μmol/L",114.361859265266,"61.9","115"
"01-003","Screening",0,"2015-08-13",1,"Serum","Cystatin C","mg/L",0.543231693884363,"0.51","0.98"
"01-003","Screening",0,"2015-08-13",1,"Serum","Direct Bilirubin","μmol/L",6.30320122210258,"0","5.1"
"01-003","Screening",0,"2015-08-13",1,"Serum","eGFR","μmol/L",27.8701319570116,"61.9","115"
"01-003","Screening",0,"2015-08-13",1,"Serum","eGFRcys","μmol/L",45.4059422279148,"61.9","115"
"01-003","Screening",0,"2015-08-13",1,"Serum","IgE","mg/L",0.2946293341801,"0.1","0.4"
"01-003","Screening",0,"2015-08-13",1,"Serum","Magnesium","mmol/L",0.65731207885032,"0.62","0.99"
"01-003","Screening",0,"2015-08-13",1,"Serum","Phosphorus","mmol/L",1.16688078985146,"0.97","1.45"
"01-003","Screening",0,"2015-08-13",1,"Blood","Platelet count","x 109/L",334.530734199852,"150","350"
"01-003","Screening",0,"2015-08-13",1,"Serum","Potassium","mmol/L",4.2282555525389,"3.5","5"
"01-003","Screening",0,"2015-08-13",1,"Blood","RBC count","x 1012 cells/L",2.4894578617124,"4.2","5.9"
"01-003","Screening",0,"2015-08-13",1,"Serum","Sodium","mmol/L",141.318825144677,"136","145"
"01-003","Screening",0,"2015-08-13",1,"Serum","Total Bilirubin","μmol/L",0,"5.1","20.5"
"01-003","Screening",0,"2015-08-13",1,"Blood","WBC count","x 109 cells/L",2.3555728990184,"4.5","11"
"01-003","Visit 1",1,"2015-10-06",55,"Serum","Albumin","g/L",61.288330741507,"35","55"
"01-003","Visit 1",1,"2015-10-06",55,"Urine","Albumin/Creatinine","mg/g",4.38416470251988,"0","30"
"01-003","Visit 1",1,"2015-10-06",55,"Serum","Alkaline phosphatase (ALP)","μkat/L",0.997611631480211,"0.5","1.5"
"01-003","Visit 1",1,"2015-10-06",55,"Serum","Aminotransferase, alanine (ALT)","pkat/L",0.778930527417062,"0","0.58"
"01-003","Visit 1",1,"2015-10-06",55,"Serum","Aminotransferase, aspartate (AST)","pkat/L",0.552096256540817,"0","0.58"
"01-003","Visit 1",1,"2015-10-06",55,"Serum","Bicarbonate","mmol/L",22.4550046149793,"23","28"
"01-003","Visit 1",1,"2015-10-06",55,"Serum","Blood Urea Nitrogen","mmol/L",1.79353297531305,"2.9","7.1"
"01-003","Visit 1",1,"2015-10-06",55,"Serum","Calcium","mmol/L",2.53129816934039,"2.2","2.6"
"01-003","Visit 1",1,"2015-10-06",55,"Serum","Chloride","mmol/L",100.241672865013,"98","106"
"01-003","Visit 1",1,"2015-10-06",55,"Serum","Creatinine","μmol/L",84.4917864363005,"61.9","115"
"01-003","Visit 1",1,"2015-10-06",55,"Serum","Cystatin C","mg/L",0.683953057759599,"0.51","0.98"
"01-003","Visit 1",1,"2015-10-06",55,"Serum","Direct Bilirubin","μmol/L",3.265178885039,"0","5.1"
"01-003","Visit 1",1,"2015-10-06",55,"Serum","eGFR","μmol/L",54.7815065570644,"61.9","115"
"01-003","Visit 1",1,"2015-10-06",55,"Serum","eGFRcys","μmol/L",73.3157961669651,"61.9","115"
"01-003","Visit 1",1,"2015-10-06",55,"Serum","IgE","mg/L",0.184765599885773,"0.1","0.4"
"01-003","Visit 1",1,"2015-10-06",55,"Serum","Magnesium","mmol/L",0.655630391785992,"0.62","0.99"
"01-003","Visit 1",1,"2015-10-06",55,"Serum","Phosphorus","mmol/L",0.881893647881958,"0.97","1.45"
"01-003","Visit 1",1,"2015-10-06",55,"Blood","Platelet count","x 109/L",332.33777122569,"150","350"
"01-003","Visit 1",1,"2015-10-06",55,"Serum","Potassium","mmol/L",4.89358920713395,"3.5","5"
"01-003","Visit 1",1,"2015-10-06",55,"Blood","RBC count","x 1012 cells/L",4.66104694599274,"4.2","5.9"
"01-003","Visit 1",1,"2015-10-06",55,"Serum","Sodium","mmol/L",138.548172372196,"136","145"
"01-003","Visit 1",1,"2015-10-06",55,"Serum","Total Bilirubin","μmol/L",9.06625857062018,"5.1","20.5"
"01-003","Visit 1",1,"2015-10-06",55,"Blood","WBC count","x 109 cells/L",1.08871333259206,"4.5","11"
"01-003","Visit 2",2,"2015-12-04",114,"Serum","Albumin","g/L",52.6513387656721,"35","55"
"01-003","Visit 2",2,"2015-12-04",114,"Urine","Albumin/Creatinine","mg/g",3.47848722569602,"0","30"
"01-003","Visit 2",2,"2015-12-04",114,"Serum","Alkaline phosphatase (ALP)","μkat/L",0.866035546990186,"0.5","1.5"
"01-003","Visit 2",2,"2015-12-04",114,"Serum","Aminotransferase, alanine (ALT)","pkat/L",0,"0","0.58"
"01-003","Visit 2",2,"2015-12-04",114,"Serum","Aminotransferase, aspartate (AST)","pkat/L",0.34376352566503,"0","0.58"
"01-003","Visit 2",2,"2015-12-04",114,"Serum","Bicarbonate","mmol/L",22.1329592178389,"23","28"
"01-003","Visit 2",2,"2015-12-04",114,"Serum","Blood Urea Nitrogen","mmol/L",0.528526532144904,"2.9","7.1"
"01-003","Visit 2",2,"2015-12-04",114,"Serum","Calcium","mmol/L",2.55926036369838,"2.2","2.6"
"01-003","Visit 2",2,"2015-12-04",114,"Serum","Chloride","mmol/L",103.027971016546,"98","106"
"01-003","Visit 2",2,"2015-12-04",114,"Serum","Creatinine","μmol/L",50.4799924708025,"61.9","115"
"01-003","Visit 2",2,"2015-12-04",114,"Serum","Cystatin C","mg/L",0.5190706853213,"0.51","0.98"
"01-003","Visit 2",2,"2015-12-04",114,"Serum","Direct Bilirubin","μmol/L",0,"0","5.1"
"01-003","Visit 2",2,"2015-12-04",114,"Serum","eGFR","μmol/L",86.4826140387949,"61.9","115"
"01-003","Visit 2",2,"2015-12-04",114,"Serum","eGFRcys","μmol/L",87.3059459346785,"61.9","115"
"01-003","Visit 2",2,"2015-12-04",114,"Serum","IgE","mg/L",0.329523983078826,"0.1","0.4"
"01-003","Visit 2",2,"2015-12-04",114,"Serum","Magnesium","mmol/L",0.766997007237711,"0.62","0.99"
"01-003","Visit 2",2,"2015-12-04",114,"Serum","Phosphorus","mmol/L",1.54404977675396,"0.97","1.45"
"01-003","Visit 2",2,"2015-12-04",114,"Blood","Platelet count","x 109/L",325.812695677227,"150","350"
"01-003","Visit 2",2,"2015-12-04",114,"Serum","Potassium","mmol/L",4.39969066336414,"3.5","5"
"01-003","Visit 2",2,"2015-12-04",114,"Blood","RBC count","x 1012 cells/L",4.13732969607384,"4.2","5.9"
"01-003","Visit 2",2,"2015-12-04",114,"Serum","Sodium","mmol/L",141.266708197466,"136","145"
"01-003","Visit 2",2,"2015-12-04",114,"Serum","Total Bilirubin","μmol/L",13.1558984726198,"5.1","20.5"
"01-003","Visit 2",2,"2015-12-04",114,"Blood","WBC count","x 109 cells/L",5.89273404308638,"4.5","11"
"01-004","Screening",0,"2015-01-12",1,"Serum","Albumin","g/L",53.0204408051212,"35","55"
"01-004","Screening",0,"2015-01-12",1,"Urine","Albumin/Creatinine","mg/g",34.1654759148995,"0","30"
"01-004","Screening",0,"2015-01-12",1,"Serum","Alkaline phosphatase (ALP)","μkat/L",0.62161773061691,"0.5","1.5"
"01-004","Screening",0,"2015-01-12",1,"Serum","Aminotransferase, alanine (ALT)","pkat/L",0.341446413329815,"0","0.58"
"01-004","Screening",0,"2015-01-12",1,"Serum","Aminotransferase, aspartate (AST)","pkat/L",0.618092088932409,"0","0.58"
"01-004","Screening",0,"2015-01-12",1,"Serum","Bicarbonate","mmol/L",23.4597090939335,"23","28"
"01-004","Screening",0,"2015-01-12",1,"Serum","Blood Urea Nitrogen","mmol/L",4.10961397294278,"2.9","7.1"
"01-004","Screening",0,"2015-01-12",1,"Serum","Calcium","mmol/L",2.45084412981583,"2.2","2.6"
"01-004","Screening",0,"2015-01-12",1,"Serum","Chloride","mmol/L",104.468249920141,"98","106"
"01-004","Screening",0,"2015-01-12",1,"Serum","Creatinine","μmol/L",144.696469968678,"61.9","115"
"01-004","Screening",0,"2015-01-12",1,"Serum","Cystatin C","mg/L",1.10918718671239,"0.51","0.98"
"01-004","Screening",0,"2015-01-12",1,"Serum","Direct Bilirubin","μmol/L",4.14881372869099,"0","5.1"
"01-004","Screening",0,"2015-01-12",1,"Serum","eGFR","μmol/L",74.1501239683537,"61.9","115"
"01-004","Screening",0,"2015-01-12",1,"Serum","eGFRcys","μmol/L",107.208676694354,"61.9","115"
"01-004","Screening",0,"2015-01-12",1,"Serum","IgE","mg/L",0,"0.1","0.4"
"01-004","Screening",0,"2015-01-12",1,"Serum","Magnesium","mmol/L",0.849358268275299,"0.62","0.99"
"01-004","Screening",0,"2015-01-12",1,"Serum","Phosphorus","mmol/L",1.25855224135731,"0.97","1.45"
"01-004","Screening",0,"2015-01-12",1,"Blood","Platelet count","x 109/L",371.771606328924,"150","350"
"01-004","Screening",0,"2015-01-12",1,"Serum","Potassium","mmol/L",4.71207001849893,"3.5","5"
"01-004","Screening",0,"2015-01-12",1,"Blood","RBC count","x 1012 cells/L",3.36136048416028,"4.2","5.9"
"01-004","Screening",0,"2015-01-12",1,"Serum","Sodium","mmol/L",145.316323855182,"136","145"
"01-004","Screening",0,"2015-01-12",1,"Serum","Total Bilirubin","μmol/L",2.03016938282576,"5.1","20.5"
"01-004","Screening",0,"2015-01-12",1,"Blood","WBC count","x 109 cells/L",6.4325555017437,"4.5","11"
"01-005","Screening",0,"2015-11-11",1,"Serum","Albumin","g/L",65.1140757605684,"35","55"
"01-005","Screening",0,"2015-11-11",1,"Urine","Albumin/Creatinine","mg/g",14.7128996591929,"0","30"
"01-005","Screening",0,"2015-11-11",1,"Serum","Alkaline phosphatase (ALP)","μkat/L",0.785374895075509,"0.5","1.5"
"01-005","Screening",0,"2015-11-11",1,"Serum","Aminotransferase, alanine (ALT)","pkat/L",0.337892835880538,"0","0.58"
"01-005","Screening",0,"2015-11-11",1,"Serum","Aminotransferase, aspartate (AST)","pkat/L",0.817342646988675,"0","0.58"
"01-005","Screening",0,"2015-11-11",1,"Serum","Bicarbonate","mmol/L",26.7739085932791,"23","28"
"01-005","Screening",0,"2015-11-11",1,"Serum","Blood Urea Nitrogen","mmol/L",3.38089298511402,"2.9","7.1"
"01-005","Screening",0,"2015-11-11",1,"Serum","Calcium","mmol/L",2.26646116675069,"2.2","2.6"
"01-005","Screening",0,"2015-11-11",1,"Serum","Chloride","mmol/L",103.417186763392,"98","106"
"01-005","Screening",0,"2015-11-11",1,"Serum","Creatinine","μmol/L",52.9047646294469,"61.9","115"
"01-005","Screening",0,"2015-11-11",1,"Serum","Cystatin C","mg/L",1.0972797726647,"0.51","0.98"
"01-005","Screening",0,"2015-11-11",1,"Serum","Direct Bilirubin","μmol/L",9.06337197411982,"0","5.1"
"01-005","Screening",0,"2015-11-11",1,"Serum","eGFR","μmol/L",34.3608857662276,"61.9","115"
"01-005","Screening",0,"2015-11-11",1,"Serum","eGFRcys","μmol/L",61.7564478738208,"61.9","115"
"01-005","Screening",0,"2015-11-11",1,"Serum","IgE","mg/L",0.213374204675145,"0.1","0.4"
"01-005","Screening",0,"2015-11-11",1,"Serum","Magnesium","mmol/L",0.903640063578026,"0.62","0.99"
"01-005","Screening",0,"2015-11-11",1,"Serum","Phosphorus","mmol/L",0.959680756656729,"0.97","1.45"
"01-005","Screening",0,"2015-11-11",1,"Blood","Platelet count","x 109/L",367.34112732942,"150","350"
"01-005","Screening",0,"2015-11-11",1,"Serum","Potassium","mmol/L",5.12145035493501,"3.5","5"
"01-005","Screening",0,"2015-11-11",1,"Blood","RBC count","x 1012 cells/L",3.6960338484219,"4.2","5.9"
"01-005","Screening",0,"2015-11-11",1,"Serum","Sodium","mmol/L",139.26277516243,"136","145"
"01-005","Screening",0,"2015-11-11",1,"Serum","Total Bilirubin","μmol/L",0,"5.1","20.5"
"01-005","Screening",0,"2015-11-11",1,"Blood","WBC count","x 109 cells/L",4.72357376870019,"4.5","11"
"01-005","Visit 1",1,"2016-01-02",53,"Serum","Albumin","g/L",62.7420371456048,"35","55"
"01-005","Visit 1",1,"2016-01-02",53,"Urine","Albumin/Creatinine","mg/g",14.9056021917697,"0","30"
"01-005","Visit 1",1,"2016-01-02",53,"Serum","Alkaline phosphatase (ALP)","μkat/L",0.755125671255546,"0.5","1.5"
"01-005","Visit 1",1,"2016-01-02",53,"Serum","Aminotransferase, alanine (ALT)","pkat/L",0.34785671663485,"0","0.58"
"01-005","Visit 1",1,"2016-01-02",53,"Serum","Aminotransferase, aspartate (AST)","pkat/L",0.64161243322897,"0","0.58"
"01-005","Visit 1",1,"2016-01-02",53,"Serum","Bicarbonate","mmol/L",24.358395416944,"23","28"
"01-005","Visit 1",1,"2016-01-02",53,"Serum","Blood Urea Nitrogen","mmol/L",4.88930128012097,"2.9","7.1"
"01-005","Visit 1",1,"2016-01-02",53,"Serum","Calcium","mmol/L",2.4250671179555,"2.2","2.6"
"01-005","Visit 1",1,"2016-01-02",53,"Serum","Chloride","mmol/L",102.91017531631,"98","106"
"01-005","Visit 1",1,"2016-01-02",53,"Serum","Creatinine","μmol/L",98.540926587729,"61.9","115"
"01-005","Visit 1",1,"2016-01-02",53,"Serum","Cystatin C","mg/L",0.950513369861525,"0.51","0.98"
"01-005","Visit 1",1,"2016-01-02",53,"Serum","Direct Bilirubin","μmol/L",9.20009715221412,"0","5.1"
"01-005","Visit 1",1,"2016-01-02",53,"Serum","eGFR","μmol/L",45.6415750686002,"61.9","115"
"01-005","Visit 1",1,"2016-01-02",53,"Serum","eGFRcys","μmol/L",102.421740072982,"61.9","115"
"01-005","Visit 1",1,"2016-01-02",53,"Serum","IgE","mg/L",0.329229654944211,"0.1","0.4"
"01-005","Visit 1",1,"2016-01-02",53,"Serum","Magnesium","mmol/L",0.731604764965396,"0.62","0.99"
"01-005","Visit 1",1,"2016-01-02",53,"Serum","Phosphorus","mmol/L",1.21274597993739,"0.97","1.45"
"01-005","Visit 1",1,"2016-01-02",53,"Blood","Platelet count","x 109/L",545.116826771935,"150","350"
"01-005","Visit 1",1,"2016-01-02",53,"Serum","Potassium","mmol/L",4.12774073431463,"3.5","5"
"01-005","Visit 1",1,"2016-01-02",53,"Blood","RBC count","x 1012 cells/L",5.19770739099549,"4.2","5.9"
"01-005","Visit 1",1,"2016-01-02",53,"Serum","Sodium","mmol/L",144.096761669103,"136","145"
"01-005","Visit 1",1,"2016-01-02",53,"Serum","Total Bilirubin","μmol/L",7.58379736571502,"5.1","20.5"
"01-005","Visit 1",1,"2016-01-02",53,"Blood","WBC count","x 109 cells/L",9.98412873947117,"4.5","11"
"01-008","Screening",0,"2015-11-21",1,"Serum","Albumin","g/L",56.6566956322657,"35","55"
"01-008","Screening",0,"2015-11-21",1,"Urine","Albumin/Creatinine","mg/g",18.1504824140779,"0","30"
"01-008","Screening",0,"2015-11-21",1,"Serum","Alkaline phosphatase (ALP)","μkat/L",1.5094871666598,"0.5","1.5"
"01-008","Screening",0,"2015-11-21",1,"Serum","Aminotransferase, alanine (ALT)","pkat/L",1.12961297980135,"0","0.58"
"01-008","Screening",0,"2015-11-21",1,"Serum","Aminotransferase, aspartate (AST)","pkat/L",0.0187770709564502,"0","0.58"
"01-008","Screening",0,"2015-11-21",1,"Serum","Bicarbonate","mmol/L",26.5439196725377,"23","28"
"01-008","Screening",0,"2015-11-21",1,"Serum","Blood Urea Nitrogen","mmol/L",3.78583928631909,"2.9","7.1"
"01-008","Screening",0,"2015-11-21",1,"Serum","Calcium","mmol/L",2.42096724774167,"2.2","2.6"
"01-008","Screening",0,"2015-11-21",1,"Serum","Chloride","mmol/L",106.297323952851,"98","106"
"01-008","Screening",0,"2015-11-21",1,"Serum","Creatinine","μmol/L",46.7500921810362,"61.9","115"
"01-008","Screening",0,"2015-11-21",1,"Serum","Cystatin C","mg/L",0.638301832649752,"0.51","0.98"
"01-008","Screening",0,"2015-11-21",1,"Serum","Direct Bilirubin","μmol/L",4.50724254857213,"0","5.1"
"01-008","Screening",0,"2015-11-21",1,"Serum","eGFR","μmol/L",60.6070049239769,"61.9","115"
"01-008","Screening",0,"2015-11-21",1,"Serum","eGFRcys","μmol/L",82.6083673903438,"61.9","115"
"01-008","Screening",0,"2015-11-21",1,"Serum","IgE","mg/L",0.405332502290207,"0.1","0.4"
"01-008","Screening",0,"2015-11-21",1,"Serum","Magnesium","mmol/L",0.695071648956993,"0.62","0.99"
"01-008","Screening",0,"2015-11-21",1,"Serum","Phosphorus","mmol/L",1.68889353654735,"0.97","1.45"
"01-008","Screening",0,"2015-11-21",1,"Blood","Platelet count","x 109/L",399.539856541196,"150","350"
"01-008","Screening",0,"2015-11-21",1,"Serum","Potassium","mmol/L",4.79315758298794,"3.5","5"
"01-008","Screening",0,"2015-11-21",1,"Blood","RBC count","x 1012 cells/L",4.6813722023286,"4.2","5.9"
"01-008","Screening",0,"2015-11-21",1,"Serum","Sodium","mmol/L",144.561961580653,"136","145"
"01-008","Screening",0,"2015-11-21",1,"Serum","Total Bilirubin","μmol/L",21.36893923249,"5.1","20.5"
"01-008","Screening",0,"2015-11-21",1,"Blood","WBC count","x 109 cells/L",4.3641765779268,"4.5","11"
"01-009","Screening",0,"2015-11-25",1,"Serum","Albumin","g/L",44.3073831289829,"35","55"
"01-009","Screening",0,"2015-11-25",1,"Urine","Albumin/Creatinine","mg/g",38.4856808921115,"0","30"
"01-009","Screening",0,"2015-11-25",1,"Serum","Alkaline phosphatase (ALP)","μkat/L",1.18275281807142,"0.5","1.5"
"01-009","Screening",0,"2015-11-25",1,"Serum","Aminotransferase, alanine (ALT)","pkat/L",0.355522355118459,"0","0.58"
"01-009","Screening",0,"2015-11-25",1,"Serum","Aminotransferase, aspartate (AST)","pkat/L",0.335050952139807,"0","0.58"
"01-009","Screening",0,"2015-11-25",1,"Serum","Bicarbonate","mmol/L",23.7667163534687,"23","28"
"01-009","Screening",0,"2015-11-25",1,"Serum","Blood Urea Nitrogen","mmol/L",4.26042044631178,"2.9","7.1"
"01-009","Screening",0,"2015-11-25",1,"Serum","Calcium","mmol/L",2.55355578453905,"2.2","2.6"
"01-009","Screening",0,"2015-11-25",1,"Serum","Chloride","mmol/L",106.429136446136,"98","106"
"01-009","Screening",0,"2015-11-25",1,"Serum","Creatinine","μmol/L",50.7801959597344,"61.9","115"
"01-009","Screening",0,"2015-11-25",1,"Serum","Cystatin C","mg/L",0.786737553091167,"0.51","0.98"
"01-009","Screening",0,"2015-11-25",1,"Serum","Direct Bilirubin","μmol/L",2.6582154243388,"0","5.1"
"01-009","Screening",0,"2015-11-25",1,"Serum","eGFR","μmol/L",40.8748583312741,"61.9","115"
"01-009","Screening",0,"2015-11-25",1,"Serum","eGFRcys","μmol/L",82.1314940910046,"61.9","115"
"01-009","Screening",0,"2015-11-25",1,"Serum","IgE","mg/L",0,"0.1","0.4"
"01-009","Screening",0,"2015-11-25",1,"Serum","Magnesium","mmol/L",0.519003552267654,"0.62","0.99"
"01-009","Screening",0,"2015-11-25",1,"Serum","Phosphorus","mmol/L",1.20488511281171,"0.97","1.45"
"01-009","Screening",0,"2015-11-25",1,"Blood","Platelet count","x 109/L",250.929324776984,"150","350"
"01-009","Screening",0,"2015-11-25",1,"Serum","Potassium","mmol/L",4.8152656877028,"3.5","5"
"01-009","Screening",0,"2015-11-25",1,"Blood","RBC count","x 1012 cells/L",5.43425912188335,"4.2","5.9"
"01-009","Screening",0,"2015-11-25",1,"Serum","Sodium","mmol/L",145.942546965542,"136","145"
"01-009","Screening",0,"2015-11-25",1,"Serum","Total Bilirubin","μmol/L",3.68834024431647,"5.1","20.5"
"01-009","Screening",0,"2015-11-25",1,"Blood","WBC count","x 109 cells/L",3.50922888409944,"4.5","11"
"01-009","Visit 2",2,"2016-03-18",115,"Serum","Albumin","g/L",41.681500712055,"35","55"
"01-009","Visit 2",2,"2016-03-18",115,"Urine","Albumin/Creatinine","mg/g",13.3672055999614,"0","30"
"01-009","Visit 2",2,"2016-03-18",115,"Serum","Alkaline phosphatase (ALP)","μkat/L",0,"0.5","1.5"
"01-009","Visit 2",2,"2016-03-18",115,"Serum","Aminotransferase, alanine (ALT)","pkat/L",0,"0","0.58"
"01-009","Visit 2",2,"2016-03-18",115,"Serum","Aminotransferase, aspartate (AST)","pkat/L",0.229535732518617,"0","0.58"
"01-009","Visit 2",2,"2016-03-18",115,"Serum","Bicarbonate","mmol/L",23.3821372987474,"23","28"
"01-009","Visit 2",2,"2016-03-18",115,"Serum","Blood Urea Nitrogen","mmol/L",11.6700597432894,"2.9","7.1"
"01-009","Visit 2",2,"2016-03-18",115,"Serum","Calcium","mmol/L",2.40888956246992,"2.2","2.6"
"01-009","Visit 2",2,"2016-03-18",115,"Serum","Chloride","mmol/L",102.777362080808,"98","106"
"01-009","Visit 2",2,"2016-03-18",115,"Serum","Creatinine","μmol/L",82.4497131381413,"61.9","115"
"01-009","Visit 2",2,"2016-03-18",115,"Serum","Cystatin C","mg/L",0.549113307279861,"0.51","0.98"
"01-009","Visit 2",2,"2016-03-18",115,"Serum","Direct Bilirubin","μmol/L",7.1887249718946,"0","5.1"
"01-009","Visit 2",2,"2016-03-18",115,"Serum","eGFR","μmol/L",104.975207618452,"61.9","115"
"01-009","Visit 2",2,"2016-03-18",115,"Serum","eGFRcys","μmol/L",85.3941064055724,"61.9","115"
"01-009","Visit 2",2,"2016-03-18",115,"Serum","IgE","mg/L",0.241359293854926,"0.1","0.4"
"01-009","Visit 2",2,"2016-03-18",115,"Serum","Magnesium","mmol/L",0.675850216175353,"0.62","0.99"
"01-009","Visit 2",2,"2016-03-18",115,"Serum","Phosphorus","mmol/L",1.59778478435476,"0.97","1.45"
"01-009","Visit 2",2,"2016-03-18",115,"Blood","Platelet count","x 109/L",276.815513435584,"150","350"
"01-009","Visit 2",2,"2016-03-18",115,"Serum","Potassium","mmol/L",4.16122402163688,"3.5","5"
"01-009","Visit 2",2,"2016-03-18",115,"Blood","RBC count","x 1012 cells/L",3.31091130722373,"4.2","5.9"
"01-009","Visit 2",2,"2016-03-18",115,"Serum","Sodium","mmol/L",136.456444443117,"136","145"
"01-009","Visit 2",2,"2016-03-18",115,"Serum","Total Bilirubin","μmol/L",5.68081948398413,"5.1","20.5"
"01-009","Visit 2",2,"2016-03-18",115,"Blood","WBC count","x 109 cells/L",6.61070129914375,"4.5","11"
"01-009","Visit 3",3,"2016-05-06",164,"Serum","Albumin","g/L",67.3012092578514,"35","55"
"01-009","Visit 3",3,"2016-05-06",164,"Urine","Albumin/Creatinine","mg/g",14.083024533961,"0","30"
"01-009","Visit 3",3,"2016-05-06",164,"Serum","Alkaline phosphatase (ALP)","μkat/L",1.14919588565182,"0.5","1.5"
"01-009","Visit 3",3,"2016-05-06",164,"Serum","Aminotransferase, alanine (ALT)","pkat/L",0,"0","0.58"
"01-009","Visit 3",3,"2016-05-06",164,"Serum","Aminotransferase, aspartate (AST)","pkat/L",0.328208627221044,"0","0.58"
"01-009","Visit 3",3,"2016-05-06",164,"Serum","Bicarbonate","mmol/L",25.1864196705416,"23","28"
"01-009","Visit 3",3,"2016-05-06",164,"Serum","Blood Urea Nitrogen","mmol/L",4.60157350727031,"2.9","7.1"
"01-009","Visit 3",3,"2016-05-06",164,"Serum","Calcium","mmol/L",2.36592123277086,"2.2","2.6"
"01-009","Visit 3",3,"2016-05-06",164,"Serum","Chloride","mmol/L",97.4503100805385,"98","106"
"01-009","Visit 3",3,"2016-05-06",164,"Serum","Creatinine","μmol/L",118.543680081796,"61.9","115"
"01-009","Visit 3",3,"2016-05-06",164,"Serum","Cystatin C","mg/L",0.637303907112675,"0.51","0.98"
"01-009","Visit 3",3,"2016-05-06",164,"Serum","Direct Bilirubin","μmol/L",6.07836862402543,"0","5.1"
"01-009","Visit 3",3,"2016-05-06",164,"Serum","eGFR","μmol/L",50.1826641389758,"61.9","115"
"01-009","Visit 3",3,"2016-05-06",164,"Serum","eGFRcys","μmol/L",107.443735555969,"61.9","115"
"01-009","Visit 3",3,"2016-05-06",164,"Serum","IgE","mg/L",0.218667627177928,"0.1","0.4"
"01-009","Visit 3",3,"2016-05-06",164,"Serum","Magnesium","mmol/L",0.952803029756597,"0.62","0.99"
"01-009","Visit 3",3,"2016-05-06",164,"Serum","Phosphorus","mmol/L",1.43619410363216,"0.97","1.45"
"01-009","Visit 3",3,"2016-05-06",164,"Blood","Platelet count","x 109/L",275.929634121907,"150","350"
"01-009","Visit 3",3,"2016-05-06",164,"Serum","Potassium","mmol/L",4.81653543022971,"3.5","5"
"01-009","Visit 3",3,"2016-05-06",164,"Blood","RBC count","x 1012 cells/L",4.34781930865192,"4.2","5.9"
"01-009","Visit 3",3,"2016-05-06",164,"Serum","Sodium","mmol/L",153.381831765232,"136","145"
"01-009","Visit 3",3,"2016-05-06",164,"Serum","Total Bilirubin","μmol/L",14.5921483767934,"5.1","20.5"
"01-009","Visit 3",3,"2016-05-06",164,"Blood","WBC count","x 109 cells/L",10.5923451794446,"4.5","11"
"01-010","Screening",0,"2015-01-06",1,"Serum","Albumin","g/L",50.6833083637995,"35","55"
"01-010","Screening",0,"2015-01-06",1,"Urine","Albumin/Creatinine","mg/g",0,"0","30"
"01-010","Screening",0,"2015-01-06",1,"Serum","Alkaline phosphatase (ALP)","μkat/L",1.27308082039238,"0.5","1.5"
"01-010","Screening",0,"2015-01-06",1,"Serum","Aminotransferase, alanine (ALT)","pkat/L",0.0787229472081188,"0","0.58"
"01-010","Screening",0,"2015-01-06",1,"Serum","Aminotransferase, aspartate (AST)","pkat/L",0.110398471743244,"0","0.58"
"01-010","Screening",0,"2015-01-06",1,"Serum","Bicarbonate","mmol/L",25.6669497841893,"23","28"
"01-010","Screening",0,"2015-01-06",1,"Serum","Blood Urea Nitrogen","mmol/L",4.03336680275175,"2.9","7.1"
"01-010","Screening",0,"2015-01-06",1,"Serum","Calcium","mmol/L",2.53253616877161,"2.2","2.6"
"01-010","Screening",0,"2015-01-06",1,"Serum","Chloride","mmol/L",108.93899628275,"98","106"
"01-010","Screening",0,"2015-01-06",1,"Serum","Creatinine","μmol/L",95.9407936326675,"61.9","115"
"01-010","Screening",0,"2015-01-06",1,"Serum","Cystatin C","mg/L",0.617374749954615,"0.51","0.98"
"01-010","Screening",0,"2015-01-06",1,"Serum","Direct Bilirubin","μmol/L",5.66972089405041,"0","5.1"
"01-010","Screening",0,"2015-01-06",1,"Serum","eGFR","μmol/L",39.1449248629154,"61.9","115"
"01-010","Screening",0,"2015-01-06",1,"Serum","eGFRcys","μmol/L",75.1392806615003,"61.9","115"
"01-010","Screening",0,"2015-01-06",1,"Serum","IgE","mg/L",0.362608723084873,"0.1","0.4"
"01-010","Screening",0,"2015-01-06",1,"Serum","Magnesium","mmol/L",0.824464284416378,"0.62","0.99"
"01-010","Screening",0,"2015-01-06",1,"Serum","Phosphorus","mmol/L",1.06099239825829,"0.97","1.45"
"01-010","Screening",0,"2015-01-06",1,"Blood","Platelet count","x 109/L",444.547068610199,"150","350"
"01-010","Screening",0,"2015-01-06",1,"Serum","Potassium","mmol/L",3.77141436474006,"3.5","5"
"01-010","Screening",0,"2015-01-06",1,"Blood","RBC count","x 1012 cells/L",4.29669261771802,"4.2","5.9"
"01-010","Screening",0,"2015-01-06",1,"Serum","Sodium","mmol/L",134.760675374497,"136","145"
"01-010","Screening",0,"2015-01-06",1,"Serum","Total Bilirubin","μmol/L",5.30432638584743,"5.1","20.5"
"01-010","Screening",0,"2015-01-06",1,"Blood","WBC count","x 109 cells/L",0.159556224037201,"4.5","11"
"01-010","Visit 1",1,"2015-02-26",52,"Serum","Albumin","g/L",62.8316273601826,"35","55"
"01-010","Visit 1",1,"2015-02-26",52,"Urine","Albumin/Creatinine","mg/g",0,"0","30"
"01-010","Visit 1",1,"2015-02-26",52,"Serum","Alkaline phosphatase (ALP)","μkat/L",0.848452652934915,"0.5","1.5"
"01-010","Visit 1",1,"2015-02-26",52,"Serum","Aminotransferase, alanine (ALT)","pkat/L",0.970587484505886,"0","0.58"
"01-010","Visit 1",1,"2015-02-26",52,"Serum","Aminotransferase, aspartate (AST)","pkat/L",0.274957332318362,"0","0.58"
"01-010","Visit 1",1,"2015-02-26",52,"Serum","Bicarbonate","mmol/L",23.4739284956223,"23","28"
"01-010","Visit 1",1,"2015-02-26",52,"Serum","Blood Urea Nitrogen","mmol/L",3.20197321416974,"2.9","7.1"
"01-010","Visit 1",1,"2015-02-26",52,"Serum","Calcium","mmol/L",2.40823199688277,"2.2","2.6"
"01-010","Visit 1",1,"2015-02-26",52,"Serum","Chloride","mmol/L",103.797012185334,"98","106"
"01-010","Visit 1",1,"2015-02-26",52,"Serum","Creatinine","μmol/L",76.6604590619772,"61.9","115"
"01-010","Visit 1",1,"2015-02-26",52,"Serum","Cystatin C","mg/L",0.935915479266989,"0.51","0.98"
"01-010","Visit 1",1,"2015-02-26",52,"Serum","Direct Bilirubin","μmol/L",10.4239887478126,"0","5.1"
"01-010","Visit 1",1,"2015-02-26",52,"Serum","eGFR","μmol/L",70.3835195141207,"61.9","115"
"01-010","Visit 1",1,"2015-02-26",52,"Serum","eGFRcys","μmol/L",88.7100798311128,"61.9","115"
"01-010","Visit 1",1,"2015-02-26",52,"Serum","IgE","mg/L",0.12166130342982,"0.1","0.4"
"01-010","Visit 1",1,"2015-02-26",52,"Serum","Magnesium","mmol/L",0.700465247068208,"0.62","0.99"
"01-010","Visit 1",1,"2015-02-26",52,"Serum","Phosphorus","mmol/L",1.11380043273767,"0.97","1.45"
"01-010","Visit 1",1,"2015-02-26",52,"Blood","Platelet count","x 109/L",496.358494957074,"150","350"
"01-010","Visit 1",1,"2015-02-26",52,"Serum","Potassium","mmol/L",5.35427880824357,"3.5","5"
"01-010","Visit 1",1,"2015-02-26",52,"Blood","RBC count","x 1012 cells/L",5.15121656728432,"4.2","5.9"
"01-010","Visit 1",1,"2015-02-26",52,"Serum","Sodium","mmol/L",137.54655481742,"136","145"
"01-010","Visit 1",1,"2015-02-26",52,"Serum","Total Bilirubin","μmol/L",9.68711882787488,"5.1","20.5"
"01-010","Visit 1",1,"2015-02-26",52,"Blood","WBC count","x 109 cells/L",3.68644405048404,"4.5","11"
"01-010","Visit 2",2,"2015-04-28",113,"Serum","Albumin","g/L",54.680081674169,"35","55"
"01-010","Visit 2",2,"2015-04-28",113,"Urine","Albumin/Creatinine","mg/g",0,"0","30"
"01-010","Visit 2",2,"2015-04-28",113,"Serum","Alkaline phosphatase (ALP)","μkat/L",1.46947472789203,"0.5","1.5"
"01-010","Visit 2",2,"2015-04-28",113,"Serum","Aminotransferase, alanine (ALT)","pkat/L",0.13641583066073,"0","0.58"
"01-010","Visit 2",2,"2015-04-28",113,"Serum","Aminotransferase, aspartate (AST)","pkat/L",0.209345363262777,"0","0.58"
"01-010","Visit 2",2,"2015-04-28",113,"Serum","Bicarbonate","mmol/L",27.3245762994632,"23","28"
"01-010","Visit 2",2,"2015-04-28",113,"Serum","Blood Urea Nitrogen","mmol/L",4.5772843684521,"2.9","7.1"
"01-010","Visit 2",2,"2015-04-28",113,"Serum","Calcium","mmol/L",2.42931256944924,"2.2","2.6"
"01-010","Visit 2",2,"2015-04-28",113,"Serum","Chloride","mmol/L",106.846661537232,"98","106"
"01-010","Visit 2",2,"2015-04-28",113,"Serum","Creatinine","μmol/L",91.7106844433737,"61.9","115"
"01-010","Visit 2",2,"2015-04-28",113,"Serum","Cystatin C","mg/L",0.569298875717167,"0.51","0.98"
"01-010","Visit 2",2,"2015-04-28",113,"Serum","Direct Bilirubin","μmol/L",3.33327936672404,"0","5.1"
"01-010","Visit 2",2,"2015-04-28",113,"Serum","eGFR","μmol/L",43.8167932815397,"61.9","115"
"01-010","Visit 2",2,"2015-04-28",113,"Serum","eGFRcys","μmol/L",93.4328910171301,"61.9","115"
"01-010","Visit 2",2,"2015-04-28",113,"Serum","IgE","mg/L",0.115982052003988,"0.1","0.4"
"01-010","Visit 2",2,"2015-04-28",113,"Serum","Magnesium","mmol/L",0.65624246224202,"0.62","0.99"
"01-010","Visit 2",2,"2015-04-28",113,"Serum","Phosphorus","mmol/L",1.04636514126929,"0.97","1.45"
"01-010","Visit 2",2,"2015-04-28",113,"Blood","Platelet count","x 109/L",280.898102961534,"150","350"
"01-010","Visit 2",2,"2015-04-28",113,"Serum","Potassium","mmol/L",3.79807344536842,"3.5","5"
"01-010","Visit 2",2,"2015-04-28",113,"Blood","RBC count","x 1012 cells/L",5.63757321652577,"4.2","5.9"
"01-010","Visit 2",2,"2015-04-28",113,"Serum","Sodium","mmol/L",140.141075504607,"136","145"
"01-010","Visit 2",2,"2015-04-28",113,"Serum","Total Bilirubin","μmol/L",12.3603603758178,"5.1","20.5"
"01-010","Visit 2",2,"2015-04-28",113,"Blood","WBC count","x 109 cells/L",8.00105280775293,"4.5","11"
"01-011","Screening",0,"2015-10-04",1,"Serum","Albumin","g/L",56.1164866609058,"35","55"
"01-011","Screening",0,"2015-10-04",1,"Urine","Albumin/Creatinine","mg/g",13.3843613631354,"0","30"
"01-011","Screening",0,"2015-10-04",1,"Serum","Alkaline phosphatase (ALP)","μkat/L",2.09433366285262,"0.5","1.5"
"01-011","Screening",0,"2015-10-04",1,"Serum","Aminotransferase, alanine (ALT)","pkat/L",0.816408033355581,"0","0.58"
"01-011","Screening",0,"2015-10-04",1,"Serum","Aminotransferase, aspartate (AST)","pkat/L",1.04863488294112,"0","0.58"
"01-011","Screening",0,"2015-10-04",1,"Serum","Bicarbonate","mmol/L",25.5281780490236,"23","28"
"01-011","Screening",0,"2015-10-04",1,"Serum","Blood Urea Nitrogen","mmol/L",3.58882103789232,"2.9","7.1"
"01-011","Screening",0,"2015-10-04",1,"Serum","Calcium","mmol/L",2.19984010807779,"2.2","2.6"
"01-011","Screening",0,"2015-10-04",1,"Serum","Chloride","mmol/L",102.635232973356,"98","106"
"01-011","Screening",0,"2015-10-04",1,"Serum","Creatinine","μmol/L",154.562294724587,"61.9","115"
"01-011","Screening",0,"2015-10-04",1,"Serum","Cystatin C","mg/L",0.501308532838023,"0.51","0.98"
"01-011","Screening",0,"2015-10-04",1,"Serum","Direct Bilirubin","μmol/L",4.80096433023356,"0","5.1"
"01-011","Screening",0,"2015-10-04",1,"Serum","eGFR","μmol/L",51.1603159299842,"61.9","115"
"01-011","Screening",0,"2015-10-04",1,"Serum","eGFRcys","μmol/L",109.133544773365,"61.9","115"
"01-011","Screening",0,"2015-10-04",1,"Serum","IgE","mg/L",0.00965841422506422,"0.1","0.4"
"01-011","Screening",0,"2015-10-04",1,"Serum","Magnesium","mmol/L",0.855237570684646,"0.62","0.99"
"01-011","Screening",0,"2015-10-04",1,"Serum","Phosphorus","mmol/L",1.42013020280335,"0.97","1.45"
"01-011","Screening",0,"2015-10-04",1,"Blood","Platelet count","x 109/L",277.080549218941,"150","350"
"01-011","Screening",0,"2015-10-04",1,"Serum","Potassium","mmol/L",5.02051537806073,"3.5","5"
"01-011","Screening",0,"2015-10-04",1,"Blood","RBC count","x 1012 cells/L",2.56465256104109,"4.2","5.9"
"01-011","Screening",0,"2015-10-04",1,"Serum","Sodium","mmol/L",145.379620723283,"136","145"
"01-011","Screening",0,"2015-10-04",1,"Serum","Total Bilirubin","μmol/L",12.8024721264165,"5.1","20.5"
"01-011","Screening",0,"2015-10-04",1,"Blood","WBC count","x 109 cells/L",5.92355296552245,"4.5","11"
"01-012","Screening",0,"2015-04-18",1,"Serum","Albumin","g/L",60.291430718576,"35","55"
"01-012","Screening",0,"2015-04-18",1,"Urine","Albumin/Creatinine","mg/g",19.0312982441494,"0","30"
"01-012","Screening",0,"2015-04-18",1,"Serum","Alkaline phosphatase (ALP)","μkat/L",1.05830620132221,"0.5","1.5"
"01-012","Screening",0,"2015-04-18",1,"Serum","Aminotransferase, alanine (ALT)","pkat/L",0.903194059578781,"0","0.58"
"01-012","Screening",0,"2015-04-18",1,"Serum","Aminotransferase, aspartate (AST)","pkat/L",1.09534420034833,"0","0.58"
"01-012","Screening",0,"2015-04-18",1,"Serum","Bicarbonate","mmol/L",26.6301597621462,"23","28"
"01-012","Screening",0,"2015-04-18",1,"Serum","Blood Urea Nitrogen","mmol/L",2.06600624313472,"2.9","7.1"
"01-012","Screening",0,"2015-04-18",1,"Serum","Calcium","mmol/L",2.48938014653804,"2.2","2.6"
"01-012","Screening",0,"2015-04-18",1,"Serum","Chloride","mmol/L",109.131561332979,"98","106"
"01-012","Screening",0,"2015-04-18",1,"Serum","Creatinine","μmol/L",71.9000963717936,"61.9","115"
"01-012","Screening",0,"2015-04-18",1,"Serum","Cystatin C","mg/L",0.659816351529674,"0.51","0.98"
"01-012","Screening",0,"2015-04-18",1,"Serum","Direct Bilirubin","μmol/L",3.01572214791208,"0","5.1"
"01-012","Screening",0,"2015-04-18",1,"Serum","eGFR","μmol/L",16.6507428524253,"61.9","115"
"01-012","Screening",0,"2015-04-18",1,"Serum","eGFRcys","μmol/L",116.796085736346,"61.9","115"
"01-012","Screening",0,"2015-04-18",1,"Serum","IgE","mg/L",0.347503526592371,"0.1","0.4"
"01-012","Screening",0,"2015-04-18",1,"Serum","Magnesium","mmol/L",0.914281433085678,"0.62","0.99"
"01-012","Screening",0,"2015-04-18",1,"Serum","Phosphorus","mmol/L",1.3841651619168,"0.97","1.45"
"01-012","Screening",0,"2015-04-18",1,"Blood","Platelet count","x 109/L",387.948196123845,"150","350"
"01-012","Screening",0,"2015-04-18",1,"Serum","Potassium","mmol/L",4.0077592494902,"3.5","5"
"01-012","Screening",0,"2015-04-18",1,"Blood","RBC count","x 1012 cells/L",4.59023911018375,"4.2","5.9"
"01-012","Screening",0,"2015-04-18",1,"Serum","Sodium","mmol/L",144.373504177459,"136","145"
"01-012","Screening",0,"2015-04-18",1,"Serum","Total Bilirubin","μmol/L",21.3746903306618,"5.1","20.5"
"01-012","Screening",0,"2015-04-18",1,"Blood","WBC count","x 109 cells/L",2.45942898322944,"4.5","11"
"01-012","Visit 1",1,"2015-06-11",55,"Serum","Albumin","g/L",38.5110464203828,"35","55"
"01-012","Visit 1",1,"2015-06-11",55,"Urine","Albumin/Creatinine","mg/g",0,"0","30"
"01-012","Visit 1",1,"2015-06-11",55,"Serum","Alkaline phosphatase (ALP)","μkat/L",0.351271901676159,"0.5","1.5"
"01-012","Visit 1",1,"2015-06-11",55,"Serum","Aminotransferase, alanine (ALT)","pkat/L",0.545774208781303,"0","0.58"
"01-012","Visit 1",1,"2015-06-11",55,"Serum","Aminotransferase, aspartate (AST)","pkat/L",0.987192573801397,"0","0.58"
"01-012","Visit 1",1,"2015-06-11",55,"Serum","Bicarbonate","mmol/L",29.1465984989631,"23","28"
"01-012","Visit 1",1,"2015-06-11",55,"Serum","Blood Urea Nitrogen","mmol/L",8.9257952875274,"2.9","7.1"
"01-012","Visit 1",1,"2015-06-11",55,"Serum","Calcium","mmol/L",2.45229828021614,"2.2","2.6"
"01-012","Visit 1",1,"2015-06-11",55,"Serum","Chloride","mmol/L",106.202826308621,"98","106"
"01-012","Visit 1",1,"2015-06-11",55,"Serum","Creatinine","μmol/L",85.863906164834,"61.9","115"
"01-012","Visit 1",1,"2015-06-11",55,"Serum","Cystatin C","mg/L",0.602919953226747,"0.51","0.98"
"01-012","Visit 1",1,"2015-06-11",55,"Serum","Direct Bilirubin","μmol/L",2.31274026892075,"0","5.1"
"01-012","Visit 1",1,"2015-06-11",55,"Serum","eGFR","μmol/L",78.3763168168774,"61.9","115"
"01-012","Visit 1",1,"2015-06-11",55,"Serum","eGFRcys","μmol/L",18.3071572725064,"61.9","115"
"01-012","Visit 1",1,"2015-06-11",55,"Serum","IgE","mg/L",0.239583785694442,"0.1","0.4"
"01-012","Visit 1",1,"2015-06-11",55,"Serum","Magnesium","mmol/L",0.233213908719249,"0.62","0.99"
"01-012","Visit 1",1,"2015-06-11",55,"Serum","Phosphorus","mmol/L",1.11393497693565,"0.97","1.45"
"01-012","Visit 1",1,"2015-06-11",55,"Blood","Platelet count","x 109/L",311.433288333886,"150","350"
"01-012","Visit 1",1,"2015-06-11",55,"Serum","Potassium","mmol/L",5.95654325448027,"3.5","5"
"01-012","Visit 1",1,"2015-06-11",55,"Blood","RBC count","x 1012 cells/L",3.7132634985682,"4.2","5.9"
"01-012","Visit 1",1,"2015-06-11",55,"Serum","Sodium","mmol/L",145.49660086792,"136","145"
"01-012","Visit 1",1,"2015-06-11",55,"Serum","Total Bilirubin","μmol/L",5.42718928253771,"5.1","20.5"
"01-012","Visit 1",1,"2015-06-11",55,"Blood","WBC count","x 109 cells/L",6.09506910466035,"4.5","11"
"01-012","Visit 2",2,"2015-07-31",105,"Serum","Albumin","g/L",49.2974446648938,"35","55"
"01-012","Visit 2",2,"2015-07-31",105,"Urine","Albumin/Creatinine","mg/g",39.5240218141711,"0","30"
"01-012","Visit 2",2,"2015-07-31",105,"Serum","Alkaline phosphatase (ALP)","μkat/L",0.821406905473503,"0.5","1.5"
"01-012","Visit 2",2,"2015-07-31",105,"Serum","Aminotransferase, alanine (ALT)","pkat/L",0.21205467168616,"0","0.58"
"01-012","Visit 2",2,"2015-07-31",105,"Serum","Aminotransferase, aspartate (AST)","pkat/L",0.477053429650508,"0","0.58"
"01-012","Visit 2",2,"2015-07-31",105,"Serum","Bicarbonate","mmol/L",23.0468163298161,"23","28"
"01-012","Visit 2",2,"2015-07-31",105,"Serum","Blood Urea Nitrogen","mmol/L",6.09223081380835,"2.9","7.1"
"01-012","Visit 2",2,"2015-07-31",105,"Serum","Calcium","mmol/L",2.25892389075513,"2.2","2.6"
"01-012","Visit 2",2,"2015-07-31",105,"Serum","Chloride","mmol/L",98.7543718736062,"98","106"
"01-012","Visit 2",2,"2015-07-31",105,"Serum","Creatinine","μmol/L",95.4541111529723,"61.9","115"
"01-012","Visit 2",2,"2015-07-31",105,"Serum","Cystatin C","mg/L",0.397988187146127,"0.51","0.98"
"01-012","Visit 2",2,"2015-07-31",105,"Serum","Direct Bilirubin","μmol/L",5.13520393015857,"0","5.1"
"01-012","Visit 2",2,"2015-07-31",105,"Serum","eGFR","μmol/L",106.842054435848,"61.9","115"
"01-012","Visit 2",2,"2015-07-31",105,"Serum","eGFRcys","μmol/L",42.0998075296772,"61.9","115"
"01-012","Visit 2",2,"2015-07-31",105,"Serum","IgE","mg/L",0.448457771157599,"0.1","0.4"
"01-012","Visit 2",2,"2015-07-31",105,"Serum","Magnesium","mmol/L",0.840008500170918,"0.62","0.99"
"01-012","Visit 2",2,"2015-07-31",105,"Serum","Phosphorus","mmol/L",1.64013785599165,"0.97","1.45"
"01-012","Visit 2",2,"2015-07-31",105,"Blood","Platelet count","x 109/L",261.973187709832,"150","350"
"01-012","Visit 2",2,"2015-07-31",105,"Serum","Potassium","mmol/L",3.88710039881355,"3.5","5"
"01-012","Visit 2",2,"2015-07-31",105,"Blood","RBC count","x 1012 cells/L",5.15619974048971,"4.2","5.9"
"01-012","Visit 2",2,"2015-07-31",105,"Serum","Sodium","mmol/L",140.830436918123,"136","145"
"01-012","Visit 2",2,"2015-07-31",105,"Serum","Total Bilirubin","μmol/L",10.3813615824531,"5.1","20.5"
"01-012","Visit 2",2,"2015-07-31",105,"Blood","WBC count","x 109 cells/L",5.58611775511281,"4.5","11"
"01-012","Visit 3",3,"2015-10-05",171,"Serum","Albumin","g/L",62.3140183868833,"35","55"
"01-012","Visit 3",3,"2015-10-05",171,"Urine","Albumin/Creatinine","mg/g",14.5478828344793,"0","30"
"01-012","Visit 3",3,"2015-10-05",171,"Serum","Alkaline phosphatase (ALP)","μkat/L",0.229181567210574,"0.5","1.5"
"01-012","Visit 3",3,"2015-10-05",171,"Serum","Aminotransferase, alanine (ALT)","pkat/L",0.740181801262376,"0","0.58"
"01-012","Visit 3",3,"2015-10-05",171,"Serum","Aminotransferase, aspartate (AST)","pkat/L",0.0406404649877099,"0","0.58"
"01-012","Visit 3",3,"2015-10-05",171,"Serum","Bicarbonate","mmol/L",25.1901944868647,"23","28"
"01-012","Visit 3",3,"2015-10-05",171,"Serum","Blood Urea Nitrogen","mmol/L",6.85139766075283,"2.9","7.1"
"01-012","Visit 3",3,"2015-10-05",171,"Serum","Calcium","mmol/L",2.4354514589218,"2.2","2.6"
"01-012","Visit 3",3,"2015-10-05",171,"Serum","Chloride","mmol/L",101.821059488331,"98","106"
"01-012","Visit 3",3,"2015-10-05",171,"Serum","Creatinine","μmol/L",126.365454818363,"61.9","115"
"01-012","Visit 3",3,"2015-10-05",171,"Serum","Cystatin C","mg/L",0.573413200560263,"0.51","0.98"
"01-012","Visit 3",3,"2015-10-05",171,"Serum","Direct Bilirubin","μmol/L",4.14824907057252,"0","5.1"
"01-012","Visit 3",3,"2015-10-05",171,"Serum","eGFR","μmol/L",113.536412971843,"61.9","115"
"01-012","Visit 3",3,"2015-10-05",171,"Serum","eGFRcys","μmol/L",110.869087521762,"61.9","115"
"01-012","Visit 3",3,"2015-10-05",171,"Serum","IgE","mg/L",0.330177676293838,"0.1","0.4"
"01-012","Visit 3",3,"2015-10-05",171,"Serum","Magnesium","mmol/L",0.745061356066431,"0.62","0.99"
"01-012","Visit 3",3,"2015-10-05",171,"Serum","Phosphorus","mmol/L",1.43667922677829,"0.97","1.45"
"01-012","Visit 3",3,"2015-10-05",171,"Blood","Platelet count","x 109/L",322.810174500302,"150","350"
"01-012","Visit 3",3,"2015-10-05",171,"Serum","Potassium","mmol/L",3.75338191038552,"3.5","5"
"01-012","Visit 3",3,"2015-10-05",171,"Blood","RBC count","x 1012 cells/L",5.47022668192555,"4.2","5.9"
"01-012","Visit 3",3,"2015-10-05",171,"Serum","Sodium","mmol/L",133.135515274478,"136","145"
"01-012","Visit 3",3,"2015-10-05",171,"Serum","Total Bilirubin","μmol/L",14.7215627033537,"5.1","20.5"
"01-012","Visit 3",3,"2015-10-05",171,"Blood","WBC count","x 109 cells/L",10.1612865852524,"4.5","11"
"01-012","Visit 4",4,"2015-11-30",227,"Serum","Albumin","g/L",43.9153757122544,"35","55"
"01-012","Visit 4",4,"2015-11-30",227,"Urine","Albumin/Creatinine","mg/g",19.2256496825274,"0","30"
"01-012","Visit 4",4,"2015-11-30",227,"Serum","Alkaline phosphatase (ALP)","μkat/L",1.36025402124435,"0.5","1.5"
"01-012","Visit 4",4,"2015-11-30",227,"Serum","Aminotransferase, alanine (ALT)","pkat/L",0.217773786719203,"0","0.58"
"01-012","Visit 4",4,"2015-11-30",227,"Serum","Aminotransferase, aspartate (AST)","pkat/L",0.497979869110361,"0","0.58"
"01-012","Visit 4",4,"2015-11-30",227,"Serum","Bicarbonate","mmol/L",28.7837528927855,"23","28"
"01-012","Visit 4",4,"2015-11-30",227,"Serum","Blood Urea Nitrogen","mmol/L",4.09442202191401,"2.9","7.1"
"01-012","Visit 4",4,"2015-11-30",227,"Serum","Calcium","mmol/L",2.41970992342199,"2.2","2.6"
"01-012","Visit 4",4,"2015-11-30",227,"Serum","Chloride","mmol/L",102.06278087347,"98","106"
"01-012","Visit 4",4,"2015-11-30",227,"Serum","Creatinine","μmol/L",89.8041144482073,"61.9","115"
"01-012","Visit 4",4,"2015-11-30",227,"Serum","Cystatin C","mg/L",0.973808924963925,"0.51","0.98"
"01-012","Visit 4",4,"2015-11-30",227,"Serum","Direct Bilirubin","μmol/L",4.73812208702671,"0","5.1"
"01-012","Visit 4",4,"2015-11-30",227,"Serum","eGFR","μmol/L",125.088148811642,"61.9","115"
"01-012","Visit 4",4,"2015-11-30",227,"Serum","eGFRcys","μmol/L",61.8384096408028,"61.9","115"
"01-012","Visit 4",4,"2015-11-30",227,"Serum","IgE","mg/L",0,"0.1","0.4"
"01-012","Visit 4",4,"2015-11-30",227,"Serum","Magnesium","mmol/L",0.764683301315389,"0.62","0.99"
"01-012","Visit 4",4,"2015-11-30",227,"Serum","Phosphorus","mmol/L",0.922055521105116,"0.97","1.45"
"01-012","Visit 4",4,"2015-11-30",227,"Blood","Platelet count","x 109/L",156.784526221902,"150","350"
"01-012","Visit 4",4,"2015-11-30",227,"Serum","Potassium","mmol/L",4.09822807383625,"3.5","5"
"01-012","Visit 4",4,"2015-11-30",227,"Blood","RBC count","x 1012 cells/L",5.33671795500684,"4.2","5.9"
"01-012","Visit 4",4,"2015-11-30",227,"Serum","Sodium","mmol/L",142.970689049339,"136","145"
"01-012","Visit 4",4,"2015-11-30",227,"Serum","Total Bilirubin","μmol/L",8.15223879043171,"5.1","20.5"
"01-012","Visit 4",4,"2015-11-30",227,"Blood","WBC count","x 109 cells/L",10.0331434211852,"4.5","11"
"01-013","Screening",0,"2015-07-15",1,"Serum","Albumin","g/L",57.8603892253544,"35","55"
"01-013","Screening",0,"2015-07-15",1,"Urine","Albumin/Creatinine","mg/g",14.8803724688202,"0","30"
"01-013","Screening",0,"2015-07-15",1,"Serum","Alkaline phosphatase (ALP)","μkat/L",1.58586418906292,"0.5","1.5"
"01-013","Screening",0,"2015-07-15",1,"Serum","Aminotransferase, alanine (ALT)","pkat/L",0.492345463088506,"0","0.58"
"01-013","Screening",0,"2015-07-15",1,"Serum","Aminotransferase, aspartate (AST)","pkat/L",1.25816528887878,"0","0.58"
"01-013","Screening",0,"2015-07-15",1,"Serum","Bicarbonate","mmol/L",24.0349526857152,"23","28"
"01-013","Screening",0,"2015-07-15",1,"Serum","Blood Urea Nitrogen","mmol/L",5.19468767728025,"2.9","7.1"
"01-013","Screening",0,"2015-07-15",1,"Serum","Calcium","mmol/L",2.54079852538182,"2.2","2.6"
"01-013","Screening",0,"2015-07-15",1,"Serum","Chloride","mmol/L",105.170145824955,"98","106"
"01-013","Screening",0,"2015-07-15",1,"Serum","Creatinine","μmol/L",85.014725521616,"61.9","115"
"01-013","Screening",0,"2015-07-15",1,"Serum","Cystatin C","mg/L",0.628189441258674,"0.51","0.98"
"01-013","Screening",0,"2015-07-15",1,"Serum","Direct Bilirubin","μmol/L",6.32835641033667,"0","5.1"
"01-013","Screening",0,"2015-07-15",1,"Serum","eGFR","μmol/L",128.487942092121,"61.9","115"
"01-013","Screening",0,"2015-07-15",1,"Serum","eGFRcys","μmol/L",106.17653647697,"61.9","115"
"01-013","Screening",0,"2015-07-15",1,"Serum","IgE","mg/L",0.226112123449139,"0.1","0.4"
"01-013","Screening",0,"2015-07-15",1,"Serum","Magnesium","mmol/L",1.0972036852338,"0.62","0.99"
"01-013","Screening",0,"2015-07-15",1,"Serum","Phosphorus","mmol/L",1.18194694143374,"0.97","1.45"
"01-013","Screening",0,"2015-07-15",1,"Blood","Platelet count","x 109/L",321.554386493976,"150","350"
"01-013","Screening",0,"2015-07-15",1,"Serum","Potassium","mmol/L",2.66913373309117,"3.5","5"
"01-013","Screening",0,"2015-07-15",1,"Blood","RBC count","x 1012 cells/L",4.6373131323561,"4.2","5.9"
"01-013","Screening",0,"2015-07-15",1,"Serum","Sodium","mmol/L",146.354309776617,"136","145"
"01-013","Screening",0,"2015-07-15",1,"Serum","Total Bilirubin","μmol/L",16.713002034162,"5.1","20.5"
"01-013","Screening",0,"2015-07-15",1,"Blood","WBC count","x 109 cells/L",3.08763089651875,"4.5","11"
"01-013","Visit 1",1,"2015-09-15",63,"Serum","Albumin","g/L",55.1289144238149,"35","55"
"01-013","Visit 1",1,"2015-09-15",63,"Urine","Albumin/Creatinine","mg/g",30.432355792547,"0","30"
"01-013","Visit 1",1,"2015-09-15",63,"Serum","Alkaline phosphatase (ALP)","μkat/L",1.56884311627049,"0.5","1.5"
"01-013","Visit 1",1,"2015-09-15",63,"Serum","Aminotransferase, alanine (ALT)","pkat/L",0.343601126068081,"0","0.58"
"01-013","Visit 1",1,"2015-09-15",63,"Serum","Aminotransferase, aspartate (AST)","pkat/L",0.206956170765873,"0","0.58"
"01-013","Visit 1",1,"2015-09-15",63,"Serum","Bicarbonate","mmol/L",23.3545094946982,"23","28"
"01-013","Visit 1",1,"2015-09-15",63,"Serum","Blood Urea Nitrogen","mmol/L",6.01971047560557,"2.9","7.1"
"01-013","Visit 1",1,"2015-09-15",63,"Serum","Calcium","mmol/L",2.31779802825711,"2.2","2.6"
"01-013","Visit 1",1,"2015-09-15",63,"Serum","Chloride","mmol/L",106.86108847069,"98","106"
"01-013","Visit 1",1,"2015-09-15",63,"Serum","Creatinine","μmol/L",64.2277740066305,"61.9","115"
"01-013","Visit 1",1,"2015-09-15",63,"Serum","Cystatin C","mg/L",0.682064058981215,"0.51","0.98"
"01-013","Visit 1",1,"2015-09-15",63,"Serum","Direct Bilirubin","μmol/L",1.51207869795514,"0","5.1"
"01-013","Visit 1",1,"2015-09-15",63,"Serum","eGFR","μmol/L",46.6903589993233,"61.9","115"
"01-013","Visit 1",1,"2015-09-15",63,"Serum","eGFRcys","μmol/L",77.4124394307826,"61.9","115"
"01-013","Visit 1",1,"2015-09-15",63,"Serum","IgE","mg/L",0.237846909077679,"0.1","0.4"
"01-013","Visit 1",1,"2015-09-15",63,"Serum","Magnesium","mmol/L",0.63111695521648,"0.62","0.99"
"01-013","Visit 1",1,"2015-09-15",63,"Serum","Phosphorus","mmol/L",0.951974463722874,"0.97","1.45"
"01-013","Visit 1",1,"2015-09-15",63,"Blood","Platelet count","x 109/L",213.500445008137,"150","350"
"01-013","Visit 1",1,"2015-09-15",63,"Serum","Potassium","mmol/L",4.83429608683256,"3.5","5"
"01-013","Visit 1",1,"2015-09-15",63,"Blood","RBC count","x 1012 cells/L",2.12351031973879,"4.2","5.9"
"01-013","Visit 1",1,"2015-09-15",63,"Serum","Sodium","mmol/L",150.333685195948,"136","145"
"01-013","Visit 1",1,"2015-09-15",63,"Serum","Total Bilirubin","μmol/L",0,"5.1","20.5"
"01-013","Visit 1",1,"2015-09-15",63,"Blood","WBC count","x 109 cells/L",7.17167415389925,"4.5","11"
"01-013","Visit 2",2,"2015-11-04",113,"Serum","Albumin","g/L",61.4381231816192,"35","55"
"01-013","Visit 2",2,"2015-11-04",113,"Urine","Albumin/Creatinine","mg/g",10.8388330037764,"0","30"
"01-013","Visit 2",2,"2015-11-04",113,"Serum","Alkaline phosphatase (ALP)","μkat/L",0.362595953441965,"0.5","1.5"
"01-013","Visit 2",2,"2015-11-04",113,"Serum","Aminotransferase, alanine (ALT)","pkat/L",0.3595266451972,"0","0.58"
"01-013","Visit 2",2,"2015-11-04",113,"Serum","Aminotransferase, aspartate (AST)","pkat/L",0.749987541885884,"0","0.58"
"01-013","Visit 2",2,"2015-11-04",113,"Serum","Bicarbonate","mmol/L",24.1156677708557,"23","28"
"01-013","Visit 2",2,"2015-11-04",113,"Serum","Blood Urea Nitrogen","mmol/L",3.30810496738271,"2.9","7.1"
"01-013","Visit 2",2,"2015-11-04",113,"Serum","Calcium","mmol/L",2.19170725159197,"2.2","2.6"
"01-013","Visit 2",2,"2015-11-04",113,"Serum","Chloride","mmol/L",99.7447953148754,"98","106"
"01-013","Visit 2",2,"2015-11-04",113,"Serum","Creatinine","μmol/L",61.7211487489193,"61.9","115"
"01-013","Visit 2",2,"2015-11-04",113,"Serum","Cystatin C","mg/L",0.545142415466703,"0.51","0.98"
"01-013","Visit 2",2,"2015-11-04",113,"Serum","Direct Bilirubin","μmol/L",1.0568590739065,"0","5.1"
"01-013","Visit 2",2,"2015-11-04",113,"Serum","eGFR","μmol/L",94.4441050751553,"61.9","115"
"01-013","Visit 2",2,"2015-11-04",113,"Serum","eGFRcys","μmol/L",140.248119519991,"61.9","115"
"01-013","Visit 2",2,"2015-11-04",113,"Serum","IgE","mg/L",0.232885071315998,"0.1","0.4"
"01-013","Visit 2",2,"2015-11-04",113,"Serum","Magnesium","mmol/L",0.467820602468904,"0.62","0.99"
"01-013","Visit 2",2,"2015-11-04",113,"Serum","Phosphorus","mmol/L",1.18395067300869,"0.97","1.45"
"01-013","Visit 2",2,"2015-11-04",113,"Blood","Platelet count","x 109/L",404.50954195212,"150","350"
"01-013","Visit 2",2,"2015-11-04",113,"Serum","Potassium","mmol/L",4.37231119182813,"3.5","5"
"01-013","Visit 2",2,"2015-11-04",113,"Blood","RBC count","x 1012 cells/L",4.49404410626622,"4.2","5.9"
"01-013","Visit 2",2,"2015-11-04",113,"Serum","Sodium","mmol/L",140.369250772774,"136","145"
"01-013","Visit 2",2,"2015-11-04",113,"Serum","Total Bilirubin","μmol/L",15.9002157117124,"5.1","20.5"
"01-013","Visit 2",2,"2015-11-04",113,"Blood","WBC count","x 109 cells/L",6.5320059383841,"4.5","11"
"01-013","Visit 3",3,"2016-01-04",174,"Serum","Albumin","g/L",33.3565115629789,"35","55"
"01-013","Visit 3",3,"2016-01-04",174,"Urine","Albumin/Creatinine","mg/g",36.0681374132354,"0","30"
"01-013","Visit 3",3,"2016-01-04",174,"Serum","Alkaline phosphatase (ALP)","μkat/L",0.289981332545835,"0.5","1.5"
"01-013","Visit 3",3,"2016-01-04",174,"Serum","Aminotransferase, alanine (ALT)","pkat/L",0,"0","0.58"
"01-013","Visit 3",3,"2016-01-04",174,"Serum","Aminotransferase, aspartate (AST)","pkat/L",0.0412105461295303,"0","0.58"
"01-013","Visit 3",3,"2016-01-04",174,"Serum","Bicarbonate","mmol/L",27.4429845059106,"23","28"
"01-013","Visit 3",3,"2016-01-04",174,"Serum","Blood Urea Nitrogen","mmol/L",6.56443549527868,"2.9","7.1"
"01-013","Visit 3",3,"2016-01-04",174,"Serum","Calcium","mmol/L",2.18642402461242,"2.2","2.6"
"01-013","Visit 3",3,"2016-01-04",174,"Serum","Chloride","mmol/L",101.373374546499,"98","106"
"01-013","Visit 3",3,"2016-01-04",174,"Serum","Creatinine","μmol/L",51.61094004857,"61.9","115"
"01-013","Visit 3",3,"2016-01-04",174,"Serum","Cystatin C","mg/L",0.627019917630277,"0.51","0.98"
"01-013","Visit 3",3,"2016-01-04",174,"Serum","Direct Bilirubin","μmol/L",7.6781282031686,"0","5.1"
"01-013","Visit 3",3,"2016-01-04",174,"Serum","eGFR","μmol/L",114.875529078359,"61.9","115"
"01-013","Visit 3",3,"2016-01-04",174,"Serum","eGFRcys","μmol/L",71.2733660619581,"61.9","115"
"01-013","Visit 3",3,"2016-01-04",174,"Serum","IgE","mg/L",0.414032033145776,"0.1","0.4"
"01-013","Visit 3",3,"2016-01-04",174,"Serum","Magnesium","mmol/L",0.444100363261698,"0.62","0.99"
"01-013","Visit 3",3,"2016-01-04",174,"Serum","Phosphorus","mmol/L",1.30592707607749,"0.97","1.45"
"01-013","Visit 3",3,"2016-01-04",174,"Blood","Platelet count","x 109/L",178.100085592884,"150","350"
"01-013","Visit 3",3,"2016-01-04",174,"Serum","Potassium","mmol/L",2.80013594632238,"3.5","5"
"01-013","Visit 3",3,"2016-01-04",174,"Blood","RBC count","x 1012 cells/L",4.94543026658974,"4.2","5.9"
"01-013","Visit 3",3,"2016-01-04",174,"Serum","Sodium","mmol/L",138.286052331536,"136","145"
"01-013","Visit 3",3,"2016-01-04",174,"Serum","Total Bilirubin","μmol/L",22.9007072118245,"5.1","20.5"
"01-013","Visit 3",3,"2016-01-04",174,"Blood","WBC count","x 109 cells/L",7.45448274915261,"4.5","11"
"01-013","Visit 4",4,"2016-02-29",230,"Serum","Albumin","g/L",23.9995585602765,"35","55"
"01-013","Visit 4",4,"2016-02-29",230,"Urine","Albumin/Creatinine","mg/g",3.51050313126381,"0","30"
"01-013","Visit 4",4,"2016-02-29",230,"Serum","Alkaline phosphatase (ALP)","μkat/L",0.199873939521915,"0.5","1.5"
"01-013","Visit 4",4,"2016-02-29",230,"Serum","Aminotransferase, alanine (ALT)","pkat/L",0.796635246789295,"0","0.58"
"01-013","Visit 4",4,"2016-02-29",230,"Serum","Aminotransferase, aspartate (AST)","pkat/L",0.349269174194082,"0","0.58"
"01-013","Visit 4",4,"2016-02-29",230,"Serum","Bicarbonate","mmol/L",22.0667548588799,"23","28"
"01-013","Visit 4",4,"2016-02-29",230,"Serum","Blood Urea Nitrogen","mmol/L",3.17409138317384,"2.9","7.1"
"01-013","Visit 4",4,"2016-02-29",230,"Serum","Calcium","mmol/L",2.47534702643813,"2.2","2.6"
"01-013","Visit 4",4,"2016-02-29",230,"Serum","Chloride","mmol/L",96.7901538415433,"98","106"
"01-013","Visit 4",4,"2016-02-29",230,"Serum","Creatinine","μmol/L",37.3631017930458,"61.9","115"
"01-013","Visit 4",4,"2016-02-29",230,"Serum","Cystatin C","mg/L",0.777443340278708,"0.51","0.98"
"01-013","Visit 4",4,"2016-02-29",230,"Serum","Direct Bilirubin","μmol/L",1.1212070633714,"0","5.1"
"01-013","Visit 4",4,"2016-02-29",230,"Serum","eGFR","μmol/L",101.560183499938,"61.9","115"
"01-013","Visit 4",4,"2016-02-29",230,"Serum","eGFRcys","μmol/L",150.181282668468,"61.9","115"
"01-013","Visit 4",4,"2016-02-29",230,"Serum","IgE","mg/L",0.271152556938814,"0.1","0.4"
"01-013","Visit 4",4,"2016-02-29",230,"Serum","Magnesium","mmol/L",0.862576483058505,"0.62","0.99"
"01-013","Visit 4",4,"2016-02-29",230,"Serum","Phosphorus","mmol/L",0.65747986343653,"0.97","1.45"
"01-013","Visit 4",4,"2016-02-29",230,"Blood","Platelet count","x 109/L",247.899257594029,"150","350"
"01-013","Visit 4",4,"2016-02-29",230,"Serum","Potassium","mmol/L",3.59923490873595,"3.5","5"
"01-013","Visit 4",4,"2016-02-29",230,"Blood","RBC count","x 1012 cells/L",6.64246982856732,"4.2","5.9"
"01-013","Visit 4",4,"2016-02-29",230,"Serum","Sodium","mmol/L",139.315819924878,"136","145"
"01-013","Visit 4",4,"2016-02-29",230,"Serum","Total Bilirubin","μmol/L",22.9099304209616,"5.1","20.5"
"01-013","Visit 4",4,"2016-02-29",230,"Blood","WBC count","x 109 cells/L",9.61565187779108,"4.5","11"
"01-013","Unscheduled 5.1",5.1,"2016-05-02",293,"Serum","Albumin","g/L",35.0149206490148,"35","55"
"01-013","Unscheduled 5.1",5.1,"2016-05-02",293,"Urine","Albumin/Creatinine","mg/g",19.9464564277495,"0","30"
"01-013","Unscheduled 5.1",5.1,"2016-05-02",293,"Serum","Alkaline phosphatase (ALP)","μkat/L",1.09712281102731,"0.5","1.5"
"01-013","Unscheduled 5.1",5.1,"2016-05-02",293,"Serum","Aminotransferase, alanine (ALT)","pkat/L",0,"0","0.58"
"01-013","Unscheduled 5.1",5.1,"2016-05-02",293,"Serum","Aminotransferase, aspartate (AST)","pkat/L",0,"0","0.58"
"01-013","Unscheduled 5.1",5.1,"2016-05-02",293,"Serum","Bicarbonate","mmol/L",26.2386999357432,"23","28"
"01-013","Unscheduled 5.1",5.1,"2016-05-02",293,"Serum","Blood Urea Nitrogen","mmol/L",7.87835608788105,"2.9","7.1"
"01-013","Unscheduled 5.1",5.1,"2016-05-02",293,"Serum","Calcium","mmol/L",2.49473508118884,"2.2","2.6"
"01-013","Unscheduled 5.1",5.1,"2016-05-02",293,"Serum","Chloride","mmol/L",97.8274748453584,"98","106"
"01-013","Unscheduled 5.1",5.1,"2016-05-02",293,"Serum","Creatinine","μmol/L",10.5362400551189,"61.9","115"
"01-013","Unscheduled 5.1",5.1,"2016-05-02",293,"Serum","Cystatin C","mg/L",0.876580689613591,"0.51","0.98"
"01-013","Unscheduled 5.1",5.1,"2016-05-02",293,"Serum","Direct Bilirubin","μmol/L",0,"0","5.1"
"01-013","Unscheduled 5.1",5.1,"2016-05-02",293,"Serum","eGFR","μmol/L",115.808037068095,"61.9","115"
"01-013","Unscheduled 5.1",5.1,"2016-05-02",293,"Serum","eGFRcys","μmol/L",59.3522609285447,"61.9","115"
"01-013","Unscheduled 5.1",5.1,"2016-05-02",293,"Serum","IgE","mg/L",0.152226092993799,"0.1","0.4"
"01-013","Unscheduled 5.1",5.1,"2016-05-02",293,"Serum","Magnesium","mmol/L",0.618880800796275,"0.62","0.99"
"01-013","Unscheduled 5.1",5.1,"2016-05-02",293,"Serum","Phosphorus","mmol/L",1.63678024313565,"0.97","1.45"
"01-013","Unscheduled 5.1",5.1,"2016-05-02",293,"Blood","Platelet count","x 109/L",149.354372333991,"150","350"
"01-013","Unscheduled 5.1",5.1,"2016-05-02",293,"Serum","Potassium","mmol/L",4.73615976369244,"3.5","5"
"01-013","Unscheduled 5.1",5.1,"2016-05-02",293,"Blood","RBC count","x 1012 cells/L",6.35226515556576,"4.2","5.9"
"01-013","Unscheduled 5.1",5.1,"2016-05-02",293,"Serum","Sodium","mmol/L",135.238740153346,"136","145"
"01-013","Unscheduled 5.1",5.1,"2016-05-02",293,"Serum","Total Bilirubin","μmol/L",22.2408037404269,"5.1","20.5"
"01-013","Unscheduled 5.1",5.1,"2016-05-02",293,"Blood","WBC count","x 109 cells/L",12.6331616255877,"4.5","11"
"01-014","Screening",0,"2015-07-24",1,"Serum","Albumin","g/L",32.5429946863729,"35","55"
"01-014","Screening",0,"2015-07-24",1,"Urine","Albumin/Creatinine","mg/g",4.34133089396045,"0","30"
"01-014","Screening",0,"2015-07-24",1,"Serum","Alkaline phosphatase (ALP)","μkat/L",2.34365829961344,"0.5","1.5"
"01-014","Screening",0,"2015-07-24",1,"Serum","Aminotransferase, alanine (ALT)","pkat/L",0.781329348409494,"0","0.58"
"01-014","Screening",0,"2015-07-24",1,"Serum","Aminotransferase, aspartate (AST)","pkat/L",0.339296165672924,"0","0.58"
"01-014","Screening",0,"2015-07-24",1,"Serum","Bicarbonate","mmol/L",26.6340086162295,"23","28"
"01-014","Screening",0,"2015-07-24",1,"Serum","Blood Urea Nitrogen","mmol/L",4.40657077328194,"2.9","7.1"
"01-014","Screening",0,"2015-07-24",1,"Serum","Calcium","mmol/L",2.2395784335806,"2.2","2.6"
"01-014","Screening",0,"2015-07-24",1,"Serum","Chloride","mmol/L",106.856283194204,"98","106"
"01-014","Screening",0,"2015-07-24",1,"Serum","Creatinine","μmol/L",139.839065018934,"61.9","115"
"01-014","Screening",0,"2015-07-24",1,"Serum","Cystatin C","mg/L",0.864068458517248,"0.51","0.98"
"01-014","Screening",0,"2015-07-24",1,"Serum","Direct Bilirubin","μmol/L",1.65339515996731,"0","5.1"
"01-014","Screening",0,"2015-07-24",1,"Serum","eGFR","μmol/L",40.3471770806634,"61.9","115"
"01-014","Screening",0,"2015-07-24",1,"Serum","eGFRcys","μmol/L",104.410653868155,"61.9","115"
"01-014","Screening",0,"2015-07-24",1,"Serum","IgE","mg/L",0.102207577467092,"0.1","0.4"
"01-014","Screening",0,"2015-07-24",1,"Serum","Magnesium","mmol/L",0.733106721458458,"0.62","0.99"
"01-014","Screening",0,"2015-07-24",1,"Serum","Phosphorus","mmol/L",1.09645346481376,"0.97","1.45"
"01-014","Screening",0,"2015-07-24",1,"Blood","Platelet count","x 109/L",374.748837623432,"150","350"
"01-014","Screening",0,"2015-07-24",1,"Serum","Potassium","mmol/L",5.53597705417789,"3.5","5"
"01-014","Screening",0,"2015-07-24",1,"Blood","RBC count","x 1012 cells/L",3.96939297195414,"4.2","5.9"
"01-014","Screening",0,"2015-07-24",1,"Serum","Sodium","mmol/L",147.897978319812,"136","145"
"01-014","Screening",0,"2015-07-24",1,"Serum","Total Bilirubin","μmol/L",0,"5.1","20.5"
"01-014","Screening",0,"2015-07-24",1,"Blood","WBC count","x 109 cells/L",2.32604031824806,"4.5","11"
"01-014","Visit 1",1,"2015-09-23",62,"Serum","Albumin","g/L",80.3680143009041,"35","55"
"01-014","Visit 1",1,"2015-09-23",62,"Urine","Albumin/Creatinine","mg/g",28.8392577443202,"0","30"
"01-014","Visit 1",1,"2015-09-23",62,"Serum","Alkaline phosphatase (ALP)","μkat/L",1.48020055859001,"0.5","1.5"
"01-014","Visit 1",1,"2015-09-23",62,"Serum","Aminotransferase, alanine (ALT)","pkat/L",0.0306499552895112,"0","0.58"
"01-014","Visit 1",1,"2015-09-23",62,"Serum","Aminotransferase, aspartate (AST)","pkat/L",0.156856478598252,"0","0.58"
"01-014","Visit 1",1,"2015-09-23",62,"Serum","Bicarbonate","mmol/L",26.3777907552461,"23","28"
"01-014","Visit 1",1,"2015-09-23",62,"Serum","Blood Urea Nitrogen","mmol/L",4.5602221729667,"2.9","7.1"
"01-014","Visit 1",1,"2015-09-23",62,"Serum","Calcium","mmol/L",2.43737431272155,"2.2","2.6"
"01-014","Visit 1",1,"2015-09-23",62,"Serum","Chloride","mmol/L",106.363410180216,"98","106"
"01-014","Visit 1",1,"2015-09-23",62,"Serum","Creatinine","μmol/L",110.059224075873,"61.9","115"
"01-014","Visit 1",1,"2015-09-23",62,"Serum","Cystatin C","mg/L",0.690200513081106,"0.51","0.98"
"01-014","Visit 1",1,"2015-09-23",62,"Serum","Direct Bilirubin","μmol/L",3.84153787409733,"0","5.1"
"01-014","Visit 1",1,"2015-09-23",62,"Serum","eGFR","μmol/L",115.006071855482,"61.9","115"
"01-014","Visit 1",1,"2015-09-23",62,"Serum","eGFRcys","μmol/L",115.157374598277,"61.9","115"
"01-014","Visit 1",1,"2015-09-23",62,"Serum","IgE","mg/L",0.571641117682646,"0.1","0.4"
"01-014","Visit 1",1,"2015-09-23",62,"Serum","Magnesium","mmol/L",0.82856767340627,"0.62","0.99"
"01-014","Visit 1",1,"2015-09-23",62,"Serum","Phosphorus","mmol/L",1.12100744380613,"0.97","1.45"
"01-014","Visit 1",1,"2015-09-23",62,"Blood","Platelet count","x 109/L",441.430339054536,"150","350"
"01-014","Visit 1",1,"2015-09-23",62,"Serum","Potassium","mmol/L",3.11782038377103,"3.5","5"
"01-014","Visit 1",1,"2015-09-23",62,"Blood","RBC count","x 1012 cells/L",2.52434883066091,"4.2","5.9"
"01-014","Visit 1",1,"2015-09-23",62,"Serum","Sodium","mmol/L",145.855921702641,"136","145"
"01-014","Visit 1",1,"2015-09-23",62,"Serum","Total Bilirubin","μmol/L",0,"5.1","20.5"
"01-014","Visit 1",1,"2015-09-23",62,"Blood","WBC count","x 109 cells/L",2.82605281508803,"4.5","11"
"01-014","Visit 2",2,"2015-11-05",105,"Serum","Albumin","g/L",47.9853671760432,"35","55"
"01-014","Visit 2",2,"2015-11-05",105,"Urine","Albumin/Creatinine","mg/g",0,"0","30"
"01-014","Visit 2",2,"2015-11-05",105,"Serum","Alkaline phosphatase (ALP)","μkat/L",1.09744810009536,"0.5","1.5"
"01-014","Visit 2",2,"2015-11-05",105,"Serum","Aminotransferase, alanine (ALT)","pkat/L",0.132134008485942,"0","0.58"
"01-014","Visit 2",2,"2015-11-05",105,"Serum","Aminotransferase, aspartate (AST)","pkat/L",0,"0","0.58"
"01-014","Visit 2",2,"2015-11-05",105,"Serum","Bicarbonate","mmol/L",24.135319690634,"23","28"
"01-014","Visit 2",2,"2015-11-05",105,"Serum","Blood Urea Nitrogen","mmol/L",3.22121610399907,"2.9","7.1"
"01-014","Visit 2",2,"2015-11-05",105,"Serum","Calcium","mmol/L",2.79737129316152,"2.2","2.6"
"01-014","Visit 2",2,"2015-11-05",105,"Serum","Chloride","mmol/L",107.808229414996,"98","106"
"01-014","Visit 2",2,"2015-11-05",105,"Serum","Creatinine","μmol/L",64.6644643007473,"61.9","115"
"01-014","Visit 2",2,"2015-11-05",105,"Serum","Cystatin C","mg/L",0.846232259948213,"0.51","0.98"
"01-014","Visit 2",2,"2015-11-05",105,"Serum","Direct Bilirubin","μmol/L",2.37666111145656,"0","5.1"
"01-014","Visit 2",2,"2015-11-05",105,"Serum","eGFR","μmol/L",49.3355025110892,"61.9","115"
"01-014","Visit 2",2,"2015-11-05",105,"Serum","eGFRcys","μmol/L",113.156751031178,"61.9","115"
"01-014","Visit 2",2,"2015-11-05",105,"Serum","IgE","mg/L",0.223458583400419,"0.1","0.4"
"01-014","Visit 2",2,"2015-11-05",105,"Serum","Magnesium","mmol/L",1.03265375757794,"0.62","0.99"
"01-014","Visit 2",2,"2015-11-05",105,"Serum","Phosphorus","mmol/L",1.16755661321536,"0.97","1.45"
"01-014","Visit 2",2,"2015-11-05",105,"Blood","Platelet count","x 109/L",306.358644478503,"150","350"
"01-014","Visit 2",2,"2015-11-05",105,"Serum","Potassium","mmol/L",3.81275229746794,"3.5","5"
"01-014","Visit 2",2,"2015-11-05",105,"Blood","RBC count","x 1012 cells/L",4.55267065503256,"4.2","5.9"
"01-014","Visit 2",2,"2015-11-05",105,"Serum","Sodium","mmol/L",138.914565941477,"136","145"
"01-014","Visit 2",2,"2015-11-05",105,"Serum","Total Bilirubin","μmol/L",13.5854648971968,"5.1","20.5"
"01-014","Visit 2",2,"2015-11-05",105,"Blood","WBC count","x 109 cells/L",5.66534490232525,"4.5","11"
"01-014","Visit 3",3,"2016-01-12",173,"Serum","Albumin","g/L",48.4539272822818,"35","55"
"01-014","Visit 3",3,"2016-01-12",173,"Urine","Albumin/Creatinine","mg/g",43.0792415916604,"0","30"
"01-014","Visit 3",3,"2016-01-12",173,"Serum","Alkaline phosphatase (ALP)","μkat/L",0.963035073444826,"0.5","1.5"
"01-014","Visit 3",3,"2016-01-12",173,"Serum","Aminotransferase, alanine (ALT)","pkat/L",0.660617895828408,"0","0.58"
"01-014","Visit 3",3,"2016-01-12",173,"Serum","Aminotransferase, aspartate (AST)","pkat/L",0.411901859873565,"0","0.58"
"01-014","Visit 3",3,"2016-01-12",173,"Serum","Bicarbonate","mmol/L",26.1850611944982,"23","28"
"01-014","Visit 3",3,"2016-01-12",173,"Serum","Blood Urea Nitrogen","mmol/L",5.71654066797211,"2.9","7.1"
"01-014","Visit 3",3,"2016-01-12",173,"Serum","Calcium","mmol/L",2.1114482094351,"2.2","2.6"
"01-014","Visit 3",3,"2016-01-12",173,"Serum","Chloride","mmol/L",98.7386236939321,"98","106"
"01-014","Visit 3",3,"2016-01-12",173,"Serum","Creatinine","μmol/L",46.2550680019398,"61.9","115"
"01-014","Visit 3",3,"2016-01-12",173,"Serum","Cystatin C","mg/L",0.544711172550008,"0.51","0.98"
"01-014","Visit 3",3,"2016-01-12",173,"Serum","Direct Bilirubin","μmol/L",1.48032272608534,"0","5.1"
"01-014","Visit 3",3,"2016-01-12",173,"Serum","eGFR","μmol/L",87.3170580148089,"61.9","115"
"01-014","Visit 3",3,"2016-01-12",173,"Serum","eGFRcys","μmol/L",111.625381458818,"61.9","115"
"01-014","Visit 3",3,"2016-01-12",173,"Serum","IgE","mg/L",0.0520154311652259,"0.1","0.4"
"01-014","Visit 3",3,"2016-01-12",173,"Serum","Magnesium","mmol/L",0.520571739945348,"0.62","0.99"
"01-014","Visit 3",3,"2016-01-12",173,"Serum","Phosphorus","mmol/L",1.03542355951735,"0.97","1.45"
"01-014","Visit 3",3,"2016-01-12",173,"Blood","Platelet count","x 109/L",168.042278462871,"150","350"
"01-014","Visit 3",3,"2016-01-12",173,"Serum","Potassium","mmol/L",5.47508872117321,"3.5","5"
"01-014","Visit 3",3,"2016-01-12",173,"Blood","RBC count","x 1012 cells/L",3.34608392429146,"4.2","5.9"
"01-014","Visit 3",3,"2016-01-12",173,"Serum","Sodium","mmol/L",140.688246100799,"136","145"
"01-014","Visit 3",3,"2016-01-12",173,"Serum","Total Bilirubin","μmol/L",17.9139938005632,"5.1","20.5"
"01-014","Visit 3",3,"2016-01-12",173,"Blood","WBC count","x 109 cells/L",11.3318239919231,"4.5","11"
"01-015","Screening",0,"2015-04-28",1,"Serum","Albumin","g/L",32.4042542359921,"35","55"
"01-015","Screening",0,"2015-04-28",1,"Urine","Albumin/Creatinine","mg/g",0,"0","30"
"01-015","Screening",0,"2015-04-28",1,"Serum","Alkaline phosphatase (ALP)","μkat/L",0.884880463011866,"0.5","1.5"
"01-015","Screening",0,"2015-04-28",1,"Serum","Aminotransferase, alanine (ALT)","pkat/L",0.475627139628776,"0","0.58"
"01-015","Screening",0,"2015-04-28",1,"Serum","Aminotransferase, aspartate (AST)","pkat/L",0.769959218604533,"0","0.58"
"01-015","Screening",0,"2015-04-28",1,"Serum","Bicarbonate","mmol/L",23.2713358170593,"23","28"
"01-015","Screening",0,"2015-04-28",1,"Serum","Blood Urea Nitrogen","mmol/L",8.79631290927508,"2.9","7.1"
"01-015","Screening",0,"2015-04-28",1,"Serum","Calcium","mmol/L",2.41342220998153,"2.2","2.6"
"01-015","Screening",0,"2015-04-28",1,"Serum","Chloride","mmol/L",103.364130640776,"98","106"
"01-015","Screening",0,"2015-04-28",1,"Serum","Creatinine","μmol/L",107.995909237703,"61.9","115"
"01-015","Screening",0,"2015-04-28",1,"Serum","Cystatin C","mg/L",0.809245750013822,"0.51","0.98"
"01-015","Screening",0,"2015-04-28",1,"Serum","Direct Bilirubin","μmol/L",3.8127299327615,"0","5.1"
"01-015","Screening",0,"2015-04-28",1,"Serum","eGFR","μmol/L",56.7294718691708,"61.9","115"
"01-015","Screening",0,"2015-04-28",1,"Serum","eGFRcys","μmol/L",49.5608030857424,"61.9","115"
"01-015","Screening",0,"2015-04-28",1,"Serum","IgE","mg/L",0.196723126515757,"0.1","0.4"
"01-015","Screening",0,"2015-04-28",1,"Serum","Magnesium","mmol/L",0.878469080219512,"0.62","0.99"
"01-015","Screening",0,"2015-04-28",1,"Serum","Phosphorus","mmol/L",1.45481268369755,"0.97","1.45"
"01-015","Screening",0,"2015-04-28",1,"Blood","Platelet count","x 109/L",266.080783002413,"150","350"
"01-015","Screening",0,"2015-04-28",1,"Serum","Potassium","mmol/L",4.69128012225754,"3.5","5"
"01-015","Screening",0,"2015-04-28",1,"Blood","RBC count","x 1012 cells/L",2.80119507747714,"4.2","5.9"
"01-015","Screening",0,"2015-04-28",1,"Serum","Sodium","mmol/L",145.806437497687,"136","145"
"01-015","Screening",0,"2015-04-28",1,"Serum","Total Bilirubin","μmol/L",27.3127517729332,"5.1","20.5"
"01-015","Screening",0,"2015-04-28",1,"Blood","WBC count","x 109 cells/L",5.52617492596832,"4.5","11"
"01-015","Visit 1",1,"2015-06-29",63,"Serum","Albumin","g/L",57.9742822852045,"35","55"
"01-015","Visit 1",1,"2015-06-29",63,"Urine","Albumin/Creatinine","mg/g",0,"0","30"
"01-015","Visit 1",1,"2015-06-29",63,"Serum","Alkaline phosphatase (ALP)","μkat/L",0.1706639134299,"0.5","1.5"
"01-015","Visit 1",1,"2015-06-29",63,"Serum","Aminotransferase, alanine (ALT)","pkat/L",0.787762983911667,"0","0.58"
"01-015","Visit 1",1,"2015-06-29",63,"Serum","Aminotransferase, aspartate (AST)","pkat/L",0.52890301949209,"0","0.58"
"01-015","Visit 1",1,"2015-06-29",63,"Serum","Bicarbonate","mmol/L",24.3929069994945,"23","28"
"01-015","Visit 1",1,"2015-06-29",63,"Serum","Blood Urea Nitrogen","mmol/L",2.76165680019734,"2.9","7.1"
"01-015","Visit 1",1,"2015-06-29",63,"Serum","Calcium","mmol/L",2.6327071223406,"2.2","2.6"
"01-015","Visit 1",1,"2015-06-29",63,"Serum","Chloride","mmol/L",107.157419516404,"98","106"
"01-015","Visit 1",1,"2015-06-29",63,"Serum","Creatinine","μmol/L",110.529173247641,"61.9","115"
"01-015","Visit 1",1,"2015-06-29",63,"Serum","Cystatin C","mg/L",0.375588075335077,"0.51","0.98"
"01-015","Visit 1",1,"2015-06-29",63,"Serum","Direct Bilirubin","μmol/L",11.7377602271713,"0","5.1"
"01-015","Visit 1",1,"2015-06-29",63,"Serum","eGFR","μmol/L",42.5420357338366,"61.9","115"
"01-015","Visit 1",1,"2015-06-29",63,"Serum","eGFRcys","μmol/L",118.785425411888,"61.9","115"
"01-015","Visit 1",1,"2015-06-29",63,"Serum","IgE","mg/L",0.0381903657977588,"0.1","0.4"
"01-015","Visit 1",1,"2015-06-29",63,"Serum","Magnesium","mmol/L",1.00751620951793,"0.62","0.99"
"01-015","Visit 1",1,"2015-06-29",63,"Serum","Phosphorus","mmol/L",1.26706661320064,"0.97","1.45"
"01-015","Visit 1",1,"2015-06-29",63,"Blood","Platelet count","x 109/L",293.413439466517,"150","350"
"01-015","Visit 1",1,"2015-06-29",63,"Serum","Potassium","mmol/L",4.92579867679665,"3.5","5"
"01-015","Visit 1",1,"2015-06-29",63,"Blood","RBC count","x 1012 cells/L",3.58143497205306,"4.2","5.9"
"01-015","Visit 1",1,"2015-06-29",63,"Serum","Sodium","mmol/L",149.208494344396,"136","145"
"01-015","Visit 1",1,"2015-06-29",63,"Serum","Total Bilirubin","μmol/L",2.95659409323207,"5.1","20.5"
"01-015","Visit 1",1,"2015-06-29",63,"Blood","WBC count","x 109 cells/L",5.98236690090212,"4.5","11"
"01-015","Unscheduled 1.1",1.1,"2015-07-07",71,"Serum","Albumin","g/L",63.508340099935,"35","55"
"01-015","Unscheduled 1.1",1.1,"2015-07-07",71,"Urine","Albumin/Creatinine","mg/g",5.39479936543305,"0","30"
"01-015","Unscheduled 1.1",1.1,"2015-07-07",71,"Serum","Alkaline phosphatase (ALP)","μkat/L",0.493074482424065,"0.5","1.5"
"01-015","Unscheduled 1.1",1.1,"2015-07-07",71,"Serum","Aminotransferase, alanine (ALT)","pkat/L",0.621958251073087,"0","0.58"
"01-015","Unscheduled 1.1",1.1,"2015-07-07",71,"Serum","Aminotransferase, aspartate (AST)","pkat/L",0.799219643113608,"0","0.58"
"01-015","Unscheduled 1.1",1.1,"2015-07-07",71,"Serum","Bicarbonate","mmol/L",25.3621106494566,"23","28"
"01-015","Unscheduled 1.1",1.1,"2015-07-07",71,"Serum","Blood Urea Nitrogen","mmol/L",8.09141384116348,"2.9","7.1"
"01-015","Unscheduled 1.1",1.1,"2015-07-07",71,"Serum","Calcium","mmol/L",2.55292905837777,"2.2","2.6"
"01-015","Unscheduled 1.1",1.1,"2015-07-07",71,"Serum","Chloride","mmol/L",107.289323897629,"98","106"
"01-015","Unscheduled 1.1",1.1,"2015-07-07",71,"Serum","Creatinine","μmol/L",50.8032243378346,"61.9","115"
"01-015","Unscheduled 1.1",1.1,"2015-07-07",71,"Serum","Cystatin C","mg/L",0.974097565180143,"0.51","0.98"
"01-015","Unscheduled 1.1",1.1,"2015-07-07",71,"Serum","Direct Bilirubin","μmol/L",7.12557803991866,"0","5.1"
"01-015","Unscheduled 1.1",1.1,"2015-07-07",71,"Serum","eGFR","μmol/L",20.445167588626,"61.9","115"
"01-015","Unscheduled 1.1",1.1,"2015-07-07",71,"Serum","eGFRcys","μmol/L",79.8702560601298,"61.9","115"
"01-015","Unscheduled 1.1",1.1,"2015-07-07",71,"Serum","IgE","mg/L",0.0996642568907506,"0.1","0.4"
"01-015","Unscheduled 1.1",1.1,"2015-07-07",71,"Serum","Magnesium","mmol/L",0.481603830567861,"0.62","0.99"
"01-015","Unscheduled 1.1",1.1,"2015-07-07",71,"Serum","Phosphorus","mmol/L",1.41008110789865,"0.97","1.45"
"01-015","Unscheduled 1.1",1.1,"2015-07-07",71,"Blood","Platelet count","x 109/L",322.954558231355,"150","350"
"01-015","Unscheduled 1.1",1.1,"2015-07-07",71,"Serum","Potassium","mmol/L",5.21290977407159,"3.5","5"
"01-015","Unscheduled 1.1",1.1,"2015-07-07",71,"Blood","RBC count","x 1012 cells/L",5.13231319763955,"4.2","5.9"
"01-015","Unscheduled 1.1",1.1,"2015-07-07",71,"Serum","Sodium","mmol/L",146.692812260687,"136","145"
"01-015","Unscheduled 1.1",1.1,"2015-07-07",71,"Serum","Total Bilirubin","μmol/L",4.25520281675923,"5.1","20.5"
"01-015","Unscheduled 1.1",1.1,"2015-07-07",71,"Blood","WBC count","x 109 cells/L",4.5145099201878,"4.5","11"
"01-015","Visit 2",2,"2015-08-24",119,"Serum","Albumin","g/L",50.2558716995472,"35","55"
"01-015","Visit 2",2,"2015-08-24",119,"Urine","Albumin/Creatinine","mg/g",14.7467191415058,"0","30"
"01-015","Visit 2",2,"2015-08-24",119,"Serum","Alkaline phosphatase (ALP)","μkat/L",0.574834278198748,"0.5","1.5"
"01-015","Visit 2",2,"2015-08-24",119,"Serum","Aminotransferase, alanine (ALT)","pkat/L",0.397614827302813,"0","0.58"
"01-015","Visit 2",2,"2015-08-24",119,"Serum","Aminotransferase, aspartate (AST)","pkat/L",0.648941059171978,"0","0.58"
"01-015","Visit 2",2,"2015-08-24",119,"Serum","Bicarbonate","mmol/L",24.1082316745042,"23","28"
"01-015","Visit 2",2,"2015-08-24",119,"Serum","Blood Urea Nitrogen","mmol/L",7.96704732345542,"2.9","7.1"
"01-015","Visit 2",2,"2015-08-24",119,"Serum","Calcium","mmol/L",2.06579910544166,"2.2","2.6"
"01-015","Visit 2",2,"2015-08-24",119,"Serum","Chloride","mmol/L",100.902536036878,"98","106"
"01-015","Visit 2",2,"2015-08-24",119,"Serum","Creatinine","μmol/L",47.4075897068628,"61.9","115"
"01-015","Visit 2",2,"2015-08-24",119,"Serum","Cystatin C","mg/L",0.883215678490001,"0.51","0.98"
"01-015","Visit 2",2,"2015-08-24",119,"Serum","Direct Bilirubin","μmol/L",0,"0","5.1"
"01-015","Visit 2",2,"2015-08-24",119,"Serum","eGFR","μmol/L",148.516422938299,"61.9","115"
"01-015","Visit 2",2,"2015-08-24",119,"Serum","eGFRcys","μmol/L",104.266175792833,"61.9","115"
"01-015","Visit 2",2,"2015-08-24",119,"Serum","IgE","mg/L",0.350390904459416,"0.1","0.4"
"01-015","Visit 2",2,"2015-08-24",119,"Serum","Magnesium","mmol/L",0.713107201094087,"0.62","0.99"
"01-015","Visit 2",2,"2015-08-24",119,"Serum","Phosphorus","mmol/L",0.96824506462632,"0.97","1.45"
"01-015","Visit 2",2,"2015-08-24",119,"Blood","Platelet count","x 109/L",335.010290757208,"150","350"
"01-015","Visit 2",2,"2015-08-24",119,"Serum","Potassium","mmol/L",3.28995983948532,"3.5","5"
"01-015","Visit 2",2,"2015-08-24",119,"Blood","RBC count","x 1012 cells/L",4.46194750578007,"4.2","5.9"
"01-015","Visit 2",2,"2015-08-24",119,"Serum","Sodium","mmol/L",139.980615833146,"136","145"
"01-015","Visit 2",2,"2015-08-24",119,"Serum","Total Bilirubin","μmol/L",14.5984273913995,"5.1","20.5"
"01-015","Visit 2",2,"2015-08-24",119,"Blood","WBC count","x 109 cells/L",6.50812004819529,"4.5","11"
"01-016","Screening",0,"2015-12-21",1,"Serum","Albumin","g/L",67.0992219663199,"35","55"
"01-016","Screening",0,"2015-12-21",1,"Urine","Albumin/Creatinine","mg/g",36.7042993906591,"0","30"
"01-016","Screening",0,"2015-12-21",1,"Serum","Alkaline phosphatase (ALP)","μkat/L",0.984434511972018,"0.5","1.5"
"01-016","Screening",0,"2015-12-21",1,"Serum","Aminotransferase, alanine (ALT)","pkat/L",0.375485870054431,"0","0.58"
"01-016","Screening",0,"2015-12-21",1,"Serum","Aminotransferase, aspartate (AST)","pkat/L",0.881418862238931,"0","0.58"
"01-016","Screening",0,"2015-12-21",1,"Serum","Bicarbonate","mmol/L",20.1598089968836,"23","28"
"01-016","Screening",0,"2015-12-21",1,"Serum","Blood Urea Nitrogen","mmol/L",10.0522834549658,"2.9","7.1"
"01-016","Screening",0,"2015-12-21",1,"Serum","Calcium","mmol/L",2.20154355667917,"2.2","2.6"
"01-016","Screening",0,"2015-12-21",1,"Serum","Chloride","mmol/L",103.147114515373,"98","106"
"01-016","Screening",0,"2015-12-21",1,"Serum","Creatinine","μmol/L",71.3181047611162,"61.9","115"
"01-016","Screening",0,"2015-12-21",1,"Serum","Cystatin C","mg/L",1.16114602033545,"0.51","0.98"
"01-016","Screening",0,"2015-12-21",1,"Serum","Direct Bilirubin","μmol/L",2.61234715437922,"0","5.1"
"01-016","Screening",0,"2015-12-21",1,"Serum","eGFR","μmol/L",92.4419097396789,"61.9","115"
"01-016","Screening",0,"2015-12-21",1,"Serum","eGFRcys","μmol/L",61.0175572494645,"61.9","115"
"01-016","Screening",0,"2015-12-21",1,"Serum","IgE","mg/L",0.205063801894834,"0.1","0.4"
"01-016","Screening",0,"2015-12-21",1,"Serum","Magnesium","mmol/L",0.670866294299335,"0.62","0.99"
"01-016","Screening",0,"2015-12-21",1,"Serum","Phosphorus","mmol/L",1.22881405037119,"0.97","1.45"
"01-016","Screening",0,"2015-12-21",1,"Blood","Platelet count","x 109/L",401.528397706711,"150","350"
"01-016","Screening",0,"2015-12-21",1,"Serum","Potassium","mmol/L",3.7864137697912,"3.5","5"
"01-016","Screening",0,"2015-12-21",1,"Blood","RBC count","x 1012 cells/L",3.35777540927333,"4.2","5.9"
"01-016","Screening",0,"2015-12-21",1,"Serum","Sodium","mmol/L",144.811729214715,"136","145"
"01-016","Screening",0,"2015-12-21",1,"Serum","Total Bilirubin","μmol/L",0,"5.1","20.5"
"01-016","Screening",0,"2015-12-21",1,"Blood","WBC count","x 109 cells/L",4.89757387204951,"4.5","11"
"01-016","Visit 1",1,"2016-02-19",61,"Serum","Albumin","g/L",47.515681397152,"35","55"
"01-016","Visit 1",1,"2016-02-19",61,"Urine","Albumin/Creatinine","mg/g",11.0511174909312,"0","30"
"01-016","Visit 1",1,"2016-02-19",61,"Serum","Alkaline phosphatase (ALP)","μkat/L",1.85232925739008,"0.5","1.5"
"01-016","Visit 1",1,"2016-02-19",61,"Serum","Aminotransferase, alanine (ALT)","pkat/L",0.352659928525343,"0","0.58"
"01-016","Visit 1",1,"2016-02-19",61,"Serum","Aminotransferase, aspartate (AST)","pkat/L",0.828115802175515,"0","0.58"
"01-016","Visit 1",1,"2016-02-19",61,"Serum","Bicarbonate","mmol/L",24.0421750104701,"23","28"
"01-016","Visit 1",1,"2016-02-19",61,"Serum","Blood Urea Nitrogen","mmol/L",6.47007201569242,"2.9","7.1"
"01-016","Visit 1",1,"2016-02-19",61,"Serum","Calcium","mmol/L",2.48384466622405,"2.2","2.6"
"01-016","Visit 1",1,"2016-02-19",61,"Serum","Chloride","mmol/L",110.996465585214,"98","106"
"01-016","Visit 1",1,"2016-02-19",61,"Serum","Creatinine","μmol/L",102.01704404387,"61.9","115"
"01-016","Visit 1",1,"2016-02-19",61,"Serum","Cystatin C","mg/L",0.645791687112931,"0.51","0.98"
"01-016","Visit 1",1,"2016-02-19",61,"Serum","Direct Bilirubin","μmol/L",2.83229447938414,"0","5.1"
"01-016","Visit 1",1,"2016-02-19",61,"Serum","eGFR","μmol/L",34.8095098030725,"61.9","115"
"01-016","Visit 1",1,"2016-02-19",61,"Serum","eGFRcys","μmol/L",102.128924868602,"61.9","115"
"01-016","Visit 1",1,"2016-02-19",61,"Serum","IgE","mg/L",0.255743000605677,"0.1","0.4"
"01-016","Visit 1",1,"2016-02-19",61,"Serum","Magnesium","mmol/L",0.773385804637814,"0.62","0.99"
"01-016","Visit 1",1,"2016-02-19",61,"Serum","Phosphorus","mmol/L",1.07311139841557,"0.97","1.45"
"01-016","Visit 1",1,"2016-02-19",61,"Blood","Platelet count","x 109/L",212.617417981492,"150","350"
"01-016","Visit 1",1,"2016-02-19",61,"Serum","Potassium","mmol/L",3.77505052560776,"3.5","5"
"01-016","Visit 1",1,"2016-02-19",61,"Blood","RBC count","x 1012 cells/L",3.5565787581327,"4.2","5.9"
"01-016","Visit 1",1,"2016-02-19",61,"Serum","Sodium","mmol/L",141.313400039719,"136","145"
"01-016","Visit 1",1,"2016-02-19",61,"Serum","Total Bilirubin","μmol/L",6.61907268779029,"5.1","20.5"
"01-016","Visit 1",1,"2016-02-19",61,"Blood","WBC count","x 109 cells/L",10.5236576028034,"4.5","11"
"01-016","Visit 2",2,"2016-04-03",105,"Serum","Albumin","g/L",52.1143122288082,"35","55"
"01-016","Visit 2",2,"2016-04-03",105,"Urine","Albumin/Creatinine","mg/g",23.2845127787689,"0","30"
"01-016","Visit 2",2,"2016-04-03",105,"Serum","Alkaline phosphatase (ALP)","μkat/L",1.68804731004764,"0.5","1.5"
"01-016","Visit 2",2,"2016-04-03",105,"Serum","Aminotransferase, alanine (ALT)","pkat/L",0.0358373236486957,"0","0.58"
"01-016","Visit 2",2,"2016-04-03",105,"Serum","Aminotransferase, aspartate (AST)","pkat/L",0,"0","0.58"
"01-016","Visit 2",2,"2016-04-03",105,"Serum","Bicarbonate","mmol/L",30.0128455161884,"23","28"
"01-016","Visit 2",2,"2016-04-03",105,"Serum","Blood Urea Nitrogen","mmol/L",1.91329390148437,"2.9","7.1"
"01-016","Visit 2",2,"2016-04-03",105,"Serum","Calcium","mmol/L",2.34553438164764,"2.2","2.6"
"01-016","Visit 2",2,"2016-04-03",105,"Serum","Chloride","mmol/L",100.269020634245,"98","106"
"01-016","Visit 2",2,"2016-04-03",105,"Serum","Creatinine","μmol/L",105.524806072471,"61.9","115"
"01-016","Visit 2",2,"2016-04-03",105,"Serum","Cystatin C","mg/L",0.718863966260904,"0.51","0.98"
"01-016","Visit 2",2,"2016-04-03",105,"Serum","Direct Bilirubin","μmol/L",0,"0","5.1"
"01-016","Visit 2",2,"2016-04-03",105,"Serum","eGFR","μmol/L",54.310090618424,"61.9","115"
"01-016","Visit 2",2,"2016-04-03",105,"Serum","eGFRcys","μmol/L",78.3840736250267,"61.9","115"
"01-016","Visit 2",2,"2016-04-03",105,"Serum","IgE","mg/L",0.174159723766451,"0.1","0.4"
"01-016","Visit 2",2,"2016-04-03",105,"Serum","Magnesium","mmol/L",0.87425900624132,"0.62","0.99"
"01-016","Visit 2",2,"2016-04-03",105,"Serum","Phosphorus","mmol/L",1.31492798083782,"0.97","1.45"
"01-016","Visit 2",2,"2016-04-03",105,"Blood","Platelet count","x 109/L",347.109038305011,"150","350"
"01-016","Visit 2",2,"2016-04-03",105,"Serum","Potassium","mmol/L",2.94527119489108,"3.5","5"
"01-016","Visit 2",2,"2016-04-03",105,"Blood","RBC count","x 1012 cells/L",4.57308324635059,"4.2","5.9"
"01-016","Visit 2",2,"2016-04-03",105,"Serum","Sodium","mmol/L",147.188283955905,"136","145"
"01-016","Visit 2",2,"2016-04-03",105,"Serum","Total Bilirubin","μmol/L",13.0384490964352,"5.1","20.5"
"01-016","Visit 2",2,"2016-04-03",105,"Blood","WBC count","x 109 cells/L",11.0594924291618,"4.5","11"
"01-016","Visit 3",3,"2016-06-09",172,"Serum","Albumin","g/L",53.8226793081307,"35","55"
"01-016","Visit 3",3,"2016-06-09",172,"Urine","Albumin/Creatinine","mg/g",11.8345356063447,"0","30"
"01-016","Visit 3",3,"2016-06-09",172,"Serum","Alkaline phosphatase (ALP)","μkat/L",1.33158379719838,"0.5","1.5"
"01-016","Visit 3",3,"2016-06-09",172,"Serum","Aminotransferase, alanine (ALT)","pkat/L",0,"0","0.58"
"01-016","Visit 3",3,"2016-06-09",172,"Serum","Aminotransferase, aspartate (AST)","pkat/L",0.531293908405272,"0","0.58"
"01-016","Visit 3",3,"2016-06-09",172,"Serum","Bicarbonate","mmol/L",24.5390465159816,"23","28"
"01-016","Visit 3",3,"2016-06-09",172,"Serum","Blood Urea Nitrogen","mmol/L",4.42290042683449,"2.9","7.1"
"01-016","Visit 3",3,"2016-06-09",172,"Serum","Calcium","mmol/L",2.70436975898684,"2.2","2.6"
"01-016","Visit 3",3,"2016-06-09",172,"Serum","Chloride","mmol/L",99.6814603693469,"98","106"
"01-016","Visit 3",3,"2016-06-09",172,"Serum","Creatinine","μmol/L",93.7372749314253,"61.9","115"
"01-016","Visit 3",3,"2016-06-09",172,"Serum","Cystatin C","mg/L",0.697578448916738,"0.51","0.98"
"01-016","Visit 3",3,"2016-06-09",172,"Serum","Direct Bilirubin","μmol/L",6.66416016526387,"0","5.1"
"01-016","Visit 3",3,"2016-06-09",172,"Serum","eGFR","μmol/L",55.930209646359,"61.9","115"
"01-016","Visit 3",3,"2016-06-09",172,"Serum","eGFRcys","μmol/L",119.324080794515,"61.9","115"
"01-016","Visit 3",3,"2016-06-09",172,"Serum","IgE","mg/L",0.399273656452037,"0.1","0.4"
"01-016","Visit 3",3,"2016-06-09",172,"Serum","Magnesium","mmol/L",0.765667673114497,"0.62","0.99"
"01-016","Visit 3",3,"2016-06-09",172,"Serum","Phosphorus","mmol/L",0.846206933631601,"0.97","1.45"
"01-016","Visit 3",3,"2016-06-09",172,"Blood","Platelet count","x 109/L",237.681802792175,"150","350"
"01-016","Visit 3",3,"2016-06-09",172,"Serum","Potassium","mmol/L",3.62348624641998,"3.5","5"
"01-016","Visit 3",3,"2016-06-09",172,"Blood","RBC count","x 1012 cells/L",5.54584574037036,"4.2","5.9"
"01-016","Visit 3",3,"2016-06-09",172,"Serum","Sodium","mmol/L",133.145723249917,"136","145"
"01-016","Visit 3",3,"2016-06-09",172,"Serum","Total Bilirubin","μmol/L",15.5329734826428,"5.1","20.5"
"01-016","Visit 3",3,"2016-06-09",172,"Blood","WBC count","x 109 cells/L",5.24470619999802,"4.5","11"
"01-016","Visit 4",4,"2016-08-04",228,"Serum","Albumin","g/L",28.8856620399447,"35","55"
"01-016","Visit 4",4,"2016-08-04",228,"Urine","Albumin/Creatinine","mg/g",0,"0","30"
"01-016","Visit 4",4,"2016-08-04",228,"Serum","Alkaline phosphatase (ALP)","μkat/L",0.385935276695317,"0.5","1.5"
"01-016","Visit 4",4,"2016-08-04",228,"Serum","Aminotransferase, alanine (ALT)","pkat/L",0.105683200189225,"0","0.58"
"01-016","Visit 4",4,"2016-08-04",228,"Serum","Aminotransferase, aspartate (AST)","pkat/L",0,"0","0.58"
"01-016","Visit 4",4,"2016-08-04",228,"Serum","Bicarbonate","mmol/L",26.0857557036453,"23","28"
"01-016","Visit 4",4,"2016-08-04",228,"Serum","Blood Urea Nitrogen","mmol/L",3.93353801419234,"2.9","7.1"
"01-016","Visit 4",4,"2016-08-04",228,"Serum","Calcium","mmol/L",2.293508842559,"2.2","2.6"
"01-016","Visit 4",4,"2016-08-04",228,"Serum","Chloride","mmol/L",96.8470666327224,"98","106"
"01-016","Visit 4",4,"2016-08-04",228,"Serum","Creatinine","μmol/L",113.687592068428,"61.9","115"
"01-016","Visit 4",4,"2016-08-04",228,"Serum","Cystatin C","mg/L",1.08141866412026,"0.51","0.98"
"01-016","Visit 4",4,"2016-08-04",228,"Serum","Direct Bilirubin","μmol/L",3.38121797623416,"0","5.1"
"01-016","Visit 4",4,"2016-08-04",228,"Serum","eGFR","μmol/L",53.7587276738275,"61.9","115"
"01-016","Visit 4",4,"2016-08-04",228,"Serum","eGFRcys","μmol/L",115.582059926905,"61.9","115"
"01-016","Visit 4",4,"2016-08-04",228,"Serum","IgE","mg/L",0.380286236234599,"0.1","0.4"
"01-016","Visit 4",4,"2016-08-04",228,"Serum","Magnesium","mmol/L",0.945044778318045,"0.62","0.99"
"01-016","Visit 4",4,"2016-08-04",228,"Serum","Phosphorus","mmol/L",1.32322736448202,"0.97","1.45"
"01-016","Visit 4",4,"2016-08-04",228,"Blood","Platelet count","x 109/L",282.15852847943,"150","350"
"01-016","Visit 4",4,"2016-08-04",228,"Serum","Potassium","mmol/L",3.95087030386109,"3.5","5"
"01-016","Visit 4",4,"2016-08-04",228,"Blood","RBC count","x 1012 cells/L",5.17053014799143,"4.2","5.9"
"01-016","Visit 4",4,"2016-08-04",228,"Serum","Sodium","mmol/L",136.931952650551,"136","145"
"01-016","Visit 4",4,"2016-08-04",228,"Serum","Total Bilirubin","μmol/L",13.0323123210035,"5.1","20.5"
"01-016","Visit 4",4,"2016-08-04",228,"Blood","WBC count","x 109 cells/L",6.85530335429599,"4.5","11"
"01-017","Screening",0,"2015-02-12",1,"Serum","Albumin","g/L",74.4058652931721,"35","55"
"01-017","Screening",0,"2015-02-12",1,"Urine","Albumin/Creatinine","mg/g",2.42769806868529,"0","30"
"01-017","Screening",0,"2015-02-12",1,"Serum","Alkaline phosphatase (ALP)","μkat/L",1.38493846490363,"0.5","1.5"
"01-017","Screening",0,"2015-02-12",1,"Serum","Aminotransferase, alanine (ALT)","pkat/L",0.657797152958603,"0","0.58"
"01-017","Screening",0,"2015-02-12",1,"Serum","Aminotransferase, aspartate (AST)","pkat/L",0.522819315145757,"0","0.58"
"01-017","Screening",0,"2015-02-12",1,"Serum","Bicarbonate","mmol/L",26.1328528612428,"23","28"
"01-017","Screening",0,"2015-02-12",1,"Serum","Blood Urea Nitrogen","mmol/L",5.13931884621296,"2.9","7.1"
"01-017","Screening",0,"2015-02-12",1,"Serum","Calcium","mmol/L",2.42537215660215,"2.2","2.6"
"01-017","Screening",0,"2015-02-12",1,"Serum","Chloride","mmol/L",104.181107016537,"98","106"
"01-017","Screening",0,"2015-02-12",1,"Serum","Creatinine","μmol/L",53.1153457357456,"61.9","115"
"01-017","Screening",0,"2015-02-12",1,"Serum","Cystatin C","mg/L",1.0594174586032,"0.51","0.98"
"01-017","Screening",0,"2015-02-12",1,"Serum","Direct Bilirubin","μmol/L",2.51749978254911,"0","5.1"
"01-017","Screening",0,"2015-02-12",1,"Serum","eGFR","μmol/L",104.572846834825,"61.9","115"
"01-017","Screening",0,"2015-02-12",1,"Serum","eGFRcys","μmol/L",83.605132140412,"61.9","115"
"01-017","Screening",0,"2015-02-12",1,"Serum","IgE","mg/L",0.120569142541335,"0.1","0.4"
"01-017","Screening",0,"2015-02-12",1,"Serum","Magnesium","mmol/L",0.772207974206684,"0.62","0.99"
"01-017","Screening",0,"2015-02-12",1,"Serum","Phosphorus","mmol/L",0.949602454432804,"0.97","1.45"
"01-017","Screening",0,"2015-02-12",1,"Blood","Platelet count","x 109/L",392.036830132563,"150","350"
"01-017","Screening",0,"2015-02-12",1,"Serum","Potassium","mmol/L",4.28567306856401,"3.5","5"
"01-017","Screening",0,"2015-02-12",1,"Blood","RBC count","x 1012 cells/L",3.30497478895734,"4.2","5.9"
"01-017","Screening",0,"2015-02-12",1,"Serum","Sodium","mmol/L",144.050741377734,"136","145"
"01-017","Screening",0,"2015-02-12",1,"Serum","Total Bilirubin","μmol/L",0.193263195196251,"5.1","20.5"
"01-017","Screening",0,"2015-02-12",1,"Blood","WBC count","x 109 cells/L",8.95619820277434,"4.5","11"
"01-017","Visit 1",1,"2015-04-11",59,"Serum","Albumin","g/L",52.4823635921804,"35","55"
"01-017","Visit 1",1,"2015-04-11",59,"Urine","Albumin/Creatinine","mg/g",8.06389123064862,"0","30"
"01-017","Visit 1",1,"2015-04-11",59,"Serum","Alkaline phosphatase (ALP)","μkat/L",1.19264164749411,"0.5","1.5"
"01-017","Visit 1",1,"2015-04-11",59,"Serum","Aminotransferase, alanine (ALT)","pkat/L",0.287042277300961,"0","0.58"
"01-017","Visit 1",1,"2015-04-11",59,"Serum","Aminotransferase, aspartate (AST)","pkat/L",0.635733134761884,"0","0.58"
"01-017","Visit 1",1,"2015-04-11",59,"Serum","Bicarbonate","mmol/L",24.1837174637734,"23","28"
"01-017","Visit 1",1,"2015-04-11",59,"Serum","Blood Urea Nitrogen","mmol/L",6.30496164060502,"2.9","7.1"
"01-017","Visit 1",1,"2015-04-11",59,"Serum","Calcium","mmol/L",2.52119073689316,"2.2","2.6"
"01-017","Visit 1",1,"2015-04-11",59,"Serum","Chloride","mmol/L",111.608234482237,"98","106"
"01-017","Visit 1",1,"2015-04-11",59,"Serum","Creatinine","μmol/L",63.2789939533044,"61.9","115"
"01-017","Visit 1",1,"2015-04-11",59,"Serum","Cystatin C","mg/L",0.668960801215896,"0.51","0.98"
"01-017","Visit 1",1,"2015-04-11",59,"Serum","Direct Bilirubin","μmol/L",3.68088757504749,"0","5.1"
"01-017","Visit 1",1,"2015-04-11",59,"Serum","eGFR","μmol/L",82.0771757485419,"61.9","115"
"01-017","Visit 1",1,"2015-04-11",59,"Serum","eGFRcys","μmol/L",75.2808539202617,"61.9","115"
"01-017","Visit 1",1,"2015-04-11",59,"Serum","IgE","mg/L",0.0199990155278531,"0.1","0.4"
"01-017","Visit 1",1,"2015-04-11",59,"Serum","Magnesium","mmol/L",1.02600569592069,"0.62","0.99"
"01-017","Visit 1",1,"2015-04-11",59,"Serum","Phosphorus","mmol/L",0.921870362951912,"0.97","1.45"
"01-017","Visit 1",1,"2015-04-11",59,"Blood","Platelet count","x 109/L",409.529037484429,"150","350"
"01-017","Visit 1",1,"2015-04-11",59,"Serum","Potassium","mmol/L",4.4391776095546,"3.5","5"
"01-017","Visit 1",1,"2015-04-11",59,"Blood","RBC count","x 1012 cells/L",4.20443556541244,"4.2","5.9"
"01-017","Visit 1",1,"2015-04-11",59,"Serum","Sodium","mmol/L",151.221221526745,"136","145"
"01-017","Visit 1",1,"2015-04-11",59,"Serum","Total Bilirubin","μmol/L",11.2738630595435,"5.1","20.5"
"01-017","Visit 1",1,"2015-04-11",59,"Blood","WBC count","x 109 cells/L",1.65942773746643,"4.5","11"
"01-017","Visit 2",2,"2015-05-31",109,"Serum","Albumin","g/L",51.1529462154464,"35","55"
"01-017","Visit 2",2,"2015-05-31",109,"Urine","Albumin/Creatinine","mg/g",14.4211187565373,"0","30"
"01-017","Visit 2",2,"2015-05-31",109,"Serum","Alkaline phosphatase (ALP)","μkat/L",1.00773574381908,"0.5","1.5"
"01-017","Visit 2",2,"2015-05-31",109,"Serum","Aminotransferase, alanine (ALT)","pkat/L",0.049747106579273,"0","0.58"
"01-017","Visit 2",2,"2015-05-31",109,"Serum","Aminotransferase, aspartate (AST)","pkat/L",0.554579902723811,"0","0.58"
"01-017","Visit 2",2,"2015-05-31",109,"Serum","Bicarbonate","mmol/L",25.8002597808287,"23","28"
"01-017","Visit 2",2,"2015-05-31",109,"Serum","Blood Urea Nitrogen","mmol/L",4.47158042097695,"2.9","7.1"
"01-017","Visit 2",2,"2015-05-31",109,"Serum","Calcium","mmol/L",2.30363562659854,"2.2","2.6"
"01-017","Visit 2",2,"2015-05-31",109,"Serum","Chloride","mmol/L",105.866090535377,"98","106"
"01-017","Visit 2",2,"2015-05-31",109,"Serum","Creatinine","μmol/L",94.803419801534,"61.9","115"
"01-017","Visit 2",2,"2015-05-31",109,"Serum","Cystatin C","mg/L",0.507427178657702,"0.51","0.98"
"01-017","Visit 2",2,"2015-05-31",109,"Serum","Direct Bilirubin","μmol/L",0,"0","5.1"
"01-017","Visit 2",2,"2015-05-31",109,"Serum","eGFR","μmol/L",89.5621312735477,"61.9","115"
"01-017","Visit 2",2,"2015-05-31",109,"Serum","eGFRcys","μmol/L",109.731335499736,"61.9","115"
"01-017","Visit 2",2,"2015-05-31",109,"Serum","IgE","mg/L",0.267687153319413,"0.1","0.4"
"01-017","Visit 2",2,"2015-05-31",109,"Serum","Magnesium","mmol/L",1.16718917555544,"0.62","0.99"
"01-017","Visit 2",2,"2015-05-31",109,"Serum","Phosphorus","mmol/L",1.65047822071038,"0.97","1.45"
"01-017","Visit 2",2,"2015-05-31",109,"Blood","Platelet count","x 109/L",235.995936945897,"150","350"
"01-017","Visit 2",2,"2015-05-31",109,"Serum","Potassium","mmol/L",5.0375280339322,"3.5","5"
"01-017","Visit 2",2,"2015-05-31",109,"Blood","RBC count","x 1012 cells/L",5.63899384591046,"4.2","5.9"
"01-017","Visit 2",2,"2015-05-31",109,"Serum","Sodium","mmol/L",138.506235645277,"136","145"
"01-017","Visit 2",2,"2015-05-31",109,"Serum","Total Bilirubin","μmol/L",0,"5.1","20.5"
"01-017","Visit 2",2,"2015-05-31",109,"Blood","WBC count","x 109 cells/L",15.0401373894121,"4.5","11"
"01-017","Visit 3",3,"2015-08-02",172,"Serum","Albumin","g/L",59.2776565428154,"35","55"
"01-017","Visit 3",3,"2015-08-02",172,"Urine","Albumin/Creatinine","mg/g",16.7280762627622,"0","30"
"01-017","Visit 3",3,"2015-08-02",172,"Serum","Alkaline phosphatase (ALP)","μkat/L",1.29619287229137,"0.5","1.5"
"01-017","Visit 3",3,"2015-08-02",172,"Serum","Aminotransferase, alanine (ALT)","pkat/L",0.54312322223809,"0","0.58"
"01-017","Visit 3",3,"2015-08-02",172,"Serum","Aminotransferase, aspartate (AST)","pkat/L",0.609840448053816,"0","0.58"
"01-017","Visit 3",3,"2015-08-02",172,"Serum","Bicarbonate","mmol/L",26.6153959511425,"23","28"
"01-017","Visit 3",3,"2015-08-02",172,"Serum","Blood Urea Nitrogen","mmol/L",1.22473170546011,"2.9","7.1"
"01-017","Visit 3",3,"2015-08-02",172,"Serum","Calcium","mmol/L",2.75517436315709,"2.2","2.6"
"01-017","Visit 3",3,"2015-08-02",172,"Serum","Chloride","mmol/L",106.591329100085,"98","106"
"01-017","Visit 3",3,"2015-08-02",172,"Serum","Creatinine","μmol/L",99.585961776418,"61.9","115"
"01-017","Visit 3",3,"2015-08-02",172,"Serum","Cystatin C","mg/L",1.3075927620719,"0.51","0.98"
"01-017","Visit 3",3,"2015-08-02",172,"Serum","Direct Bilirubin","μmol/L",4.93436087158315,"0","5.1"
"01-017","Visit 3",3,"2015-08-02",172,"Serum","eGFR","μmol/L",114.582536279195,"61.9","115"
"01-017","Visit 3",3,"2015-08-02",172,"Serum","eGFRcys","μmol/L",141.469735239,"61.9","115"
"01-017","Visit 3",3,"2015-08-02",172,"Serum","IgE","mg/L",0.261156972028599,"0.1","0.4"
"01-017","Visit 3",3,"2015-08-02",172,"Serum","Magnesium","mmol/L",0.986131785984259,"0.62","0.99"
"01-017","Visit 3",3,"2015-08-02",172,"Serum","Phosphorus","mmol/L",1.50612046612593,"0.97","1.45"
"01-017","Visit 3",3,"2015-08-02",172,"Blood","Platelet count","x 109/L",315.554396184041,"150","350"
"01-017","Visit 3",3,"2015-08-02",172,"Serum","Potassium","mmol/L",6.14409346224075,"3.5","5"
"01-017","Visit 3",3,"2015-08-02",172,"Blood","RBC count","x 1012 cells/L",4.57031714155653,"4.2","5.9"
"01-017","Visit 3",3,"2015-08-02",172,"Serum","Sodium","mmol/L",147.149267340424,"136","145"
"01-017","Visit 3",3,"2015-08-02",172,"Serum","Total Bilirubin","μmol/L",13.3124844816975,"5.1","20.5"
"01-017","Visit 3",3,"2015-08-02",172,"Blood","WBC count","x 109 cells/L",6.41322035508969,"4.5","11"
"01-018","Screening",0,"2015-02-13",1,"Serum","Albumin","g/L",32.8503847455647,"35","55"
"01-018","Screening",0,"2015-02-13",1,"Urine","Albumin/Creatinine","mg/g",0,"0","30"
"01-018","Screening",0,"2015-02-13",1,"Serum","Alkaline phosphatase (ALP)","μkat/L",0.87870576914552,"0.5","1.5"
"01-018","Screening",0,"2015-02-13",1,"Serum","Aminotransferase, alanine (ALT)","pkat/L",0.780210382797798,"0","0.58"
"01-018","Screening",0,"2015-02-13",1,"Serum","Aminotransferase, aspartate (AST)","pkat/L",0.0991698278910839,"0","0.58"
"01-018","Screening",0,"2015-02-13",1,"Serum","Bicarbonate","mmol/L",22.4040692740423,"23","28"
"01-018","Screening",0,"2015-02-13",1,"Serum","Blood Urea Nitrogen","mmol/L",4.9885342965318,"2.9","7.1"
"01-018","Screening",0,"2015-02-13",1,"Serum","Calcium","mmol/L",2.21217626899283,"2.2","2.6"
"01-018","Screening",0,"2015-02-13",1,"Serum","Chloride","mmol/L",108.395959461371,"98","106"
"01-018","Screening",0,"2015-02-13",1,"Serum","Creatinine","μmol/L",117.9735209725,"61.9","115"
"01-018","Screening",0,"2015-02-13",1,"Serum","Cystatin C","mg/L",1.12106729126129,"0.51","0.98"
"01-018","Screening",0,"2015-02-13",1,"Serum","Direct Bilirubin","μmol/L",5.18661919456288,"0","5.1"
"01-018","Screening",0,"2015-02-13",1,"Serum","eGFR","μmol/L",63.5920561831488,"61.9","115"
"01-018","Screening",0,"2015-02-13",1,"Serum","eGFRcys","μmol/L",42.3169999826182,"61.9","115"
"01-018","Screening",0,"2015-02-13",1,"Serum","IgE","mg/L",0.181604100662019,"0.1","0.4"
"01-018","Screening",0,"2015-02-13",1,"Serum","Magnesium","mmol/L",0.865936032975559,"0.62","0.99"
"01-018","Screening",0,"2015-02-13",1,"Serum","Phosphorus","mmol/L",1.23546238472069,"0.97","1.45"
"01-018","Screening",0,"2015-02-13",1,"Blood","Platelet count","x 109/L",367.885601450437,"150","350"
"01-018","Screening",0,"2015-02-13",1,"Serum","Potassium","mmol/L",5.62904178152234,"3.5","5"
"01-018","Screening",0,"2015-02-13",1,"Blood","RBC count","x 1012 cells/L",3.05288822546837,"4.2","5.9"
"01-018","Screening",0,"2015-02-13",1,"Serum","Sodium","mmol/L",148.961413370316,"136","145"
"01-018","Screening",0,"2015-02-13",1,"Serum","Total Bilirubin","μmol/L",0,"5.1","20.5"
"01-018","Screening",0,"2015-02-13",1,"Blood","WBC count","x 109 cells/L",4.18677077270262,"4.5","11"
"01-018","Visit 1",1,"2015-04-03",50,"Serum","Albumin","g/L",62.0825475084907,"35","55"
"01-018","Visit 1",1,"2015-04-03",50,"Urine","Albumin/Creatinine","mg/g",7.42753802309447,"0","30"
"01-018","Visit 1",1,"2015-04-03",50,"Serum","Alkaline phosphatase (ALP)","μkat/L",1.09581500369612,"0.5","1.5"
"01-018","Visit 1",1,"2015-04-03",50,"Serum","Aminotransferase, alanine (ALT)","pkat/L",1.02542859011493,"0","0.58"
"01-018","Visit 1",1,"2015-04-03",50,"Serum","Aminotransferase, aspartate (AST)","pkat/L",0.179963804530186,"0","0.58"
"01-018","Visit 1",1,"2015-04-03",50,"Serum","Bicarbonate","mmol/L",30.1141601248675,"23","28"
"01-018","Visit 1",1,"2015-04-03",50,"Serum","Blood Urea Nitrogen","mmol/L",5.13061113413857,"2.9","7.1"
"01-018","Visit 1",1,"2015-04-03",50,"Serum","Calcium","mmol/L",2.57108146564036,"2.2","2.6"
"01-018","Visit 1",1,"2015-04-03",50,"Serum","Chloride","mmol/L",102.672577331731,"98","106"
"01-018","Visit 1",1,"2015-04-03",50,"Serum","Creatinine","μmol/L",95.6786465230861,"61.9","115"
"01-018","Visit 1",1,"2015-04-03",50,"Serum","Cystatin C","mg/L",0.8457813261182,"0.51","0.98"
"01-018","Visit 1",1,"2015-04-03",50,"Serum","Direct Bilirubin","μmol/L",3.48929498970291,"0","5.1"
"01-018","Visit 1",1,"2015-04-03",50,"Serum","eGFR","μmol/L",35.916075661336,"61.9","115"
"01-018","Visit 1",1,"2015-04-03",50,"Serum","eGFRcys","μmol/L",84.3073692748173,"61.9","115"
"01-018","Visit 1",1,"2015-04-03",50,"Serum","IgE","mg/L",0.242390089563973,"0.1","0.4"
"01-018","Visit 1",1,"2015-04-03",50,"Serum","Magnesium","mmol/L",0.585110924281155,"0.62","0.99"
"01-018","Visit 1",1,"2015-04-03",50,"Serum","Phosphorus","mmol/L",0.897719359149854,"0.97","1.45"
"01-018","Visit 1",1,"2015-04-03",50,"Blood","Platelet count","x 109/L",361.166430109153,"150","350"
"01-018","Visit 1",1,"2015-04-03",50,"Serum","Potassium","mmol/L",4.68531340192493,"3.5","5"
"01-018","Visit 1",1,"2015-04-03",50,"Blood","RBC count","x 1012 cells/L",4.20587981061248,"4.2","5.9"
"01-018","Visit 1",1,"2015-04-03",50,"Serum","Sodium","mmol/L",150.5742816108,"136","145"
"01-018","Visit 1",1,"2015-04-03",50,"Serum","Total Bilirubin","μmol/L",8.41751876703091,"5.1","20.5"
"01-018","Visit 1",1,"2015-04-03",50,"Blood","WBC count","x 109 cells/L",11.4038091734593,"4.5","11"
"01-019","Screening",0,"2015-04-24",1,"Serum","Albumin","g/L",82.0102424734577,"35","55"
"01-019","Screening",0,"2015-04-24",1,"Urine","Albumin/Creatinine","mg/g",16.0766230263728,"0","30"
"01-019","Screening",0,"2015-04-24",1,"Serum","Alkaline phosphatase (ALP)","μkat/L",0.44081590890874,"0.5","1.5"
"01-019","Screening",0,"2015-04-24",1,"Serum","Aminotransferase, alanine (ALT)","pkat/L",0.697355523700768,"0","0.58"
"01-019","Screening",0,"2015-04-24",1,"Serum","Aminotransferase, aspartate (AST)","pkat/L",0.222744136052399,"0","0.58"
"01-019","Screening",0,"2015-04-24",1,"Serum","Bicarbonate","mmol/L",27.6984453809222,"23","28"
"01-019","Screening",0,"2015-04-24",1,"Serum","Blood Urea Nitrogen","mmol/L",5.69015867761497,"2.9","7.1"
"01-019","Screening",0,"2015-04-24",1,"Serum","Calcium","mmol/L",2.36668954889677,"2.2","2.6"
"01-019","Screening",0,"2015-04-24",1,"Serum","Chloride","mmol/L",107.412907812889,"98","106"
"01-019","Screening",0,"2015-04-24",1,"Serum","Creatinine","μmol/L",114.129775027494,"61.9","115"
"01-019","Screening",0,"2015-04-24",1,"Serum","Cystatin C","mg/L",0.915866347987822,"0.51","0.98"
"01-019","Screening",0,"2015-04-24",1,"Serum","Direct Bilirubin","μmol/L",6.64880588727038,"0","5.1"
"01-019","Screening",0,"2015-04-24",1,"Serum","eGFR","μmol/L",71.1728543342145,"61.9","115"
"01-019","Screening",0,"2015-04-24",1,"Serum","eGFRcys","μmol/L",75.9690175948846,"61.9","115"
"01-019","Screening",0,"2015-04-24",1,"Serum","IgE","mg/L",0.199541840436418,"0.1","0.4"
"01-019","Screening",0,"2015-04-24",1,"Serum","Magnesium","mmol/L",0.910218646330362,"0.62","0.99"
"01-019","Screening",0,"2015-04-24",1,"Serum","Phosphorus","mmol/L",1.37687827562331,"0.97","1.45"
"01-019","Screening",0,"2015-04-24",1,"Blood","Platelet count","x 109/L",244.299562054827,"150","350"
"01-019","Screening",0,"2015-04-24",1,"Serum","Potassium","mmol/L",4.53926791613947,"3.5","5"
"01-019","Screening",0,"2015-04-24",1,"Blood","RBC count","x 1012 cells/L",5.39916228837326,"4.2","5.9"
"01-019","Screening",0,"2015-04-24",1,"Serum","Sodium","mmol/L",146.263242374075,"136","145"
"01-019","Screening",0,"2015-04-24",1,"Serum","Total Bilirubin","μmol/L",16.3896874620158,"5.1","20.5"
"01-019","Screening",0,"2015-04-24",1,"Blood","WBC count","x 109 cells/L",7.60832195469113,"4.5","11"
"01-019","Unscheduled 0.1",0.1,"2015-05-02",9,"Serum","Albumin","g/L",45.3415231511871,"35","55"
"01-019","Unscheduled 0.1",0.1,"2015-05-02",9,"Urine","Albumin/Creatinine","mg/g",16.3786738609422,"0","30"
"01-019","Unscheduled 0.1",0.1,"2015-05-02",9,"Serum","Alkaline phosphatase (ALP)","μkat/L",2.19362699291722,"0.5","1.5"
"01-019","Unscheduled 0.1",0.1,"2015-05-02",9,"Serum","Aminotransferase, alanine (ALT)","pkat/L",0.364876100314944,"0","0.58"
"01-019","Unscheduled 0.1",0.1,"2015-05-02",9,"Serum","Aminotransferase, aspartate (AST)","pkat/L",0.630187356065931,"0","0.58"
"01-019","Unscheduled 0.1",0.1,"2015-05-02",9,"Serum","Bicarbonate","mmol/L",23.5038452209322,"23","28"
"01-019","Unscheduled 0.1",0.1,"2015-05-02",9,"Serum","Blood Urea Nitrogen","mmol/L",3.75841783982387,"2.9","7.1"
"01-019","Unscheduled 0.1",0.1,"2015-05-02",9,"Serum","Calcium","mmol/L",2.04933489764829,"2.2","2.6"
"01-019","Unscheduled 0.1",0.1,"2015-05-02",9,"Serum","Chloride","mmol/L",102.182786487957,"98","106"
"01-019","Unscheduled 0.1",0.1,"2015-05-02",9,"Serum","Creatinine","μmol/L",74.7981308407551,"61.9","115"
"01-019","Unscheduled 0.1",0.1,"2015-05-02",9,"Serum","Cystatin C","mg/L",0.674905980101374,"0.51","0.98"
"01-019","Unscheduled 0.1",0.1,"2015-05-02",9,"Serum","Direct Bilirubin","μmol/L",5.89213096475878,"0","5.1"
"01-019","Unscheduled 0.1",0.1,"2015-05-02",9,"Serum","eGFR","μmol/L",3.66555973588719,"61.9","115"
"01-019","Unscheduled 0.1",0.1,"2015-05-02",9,"Serum","eGFRcys","μmol/L",118.554386653019,"61.9","115"
"01-019","Unscheduled 0.1",0.1,"2015-05-02",9,"Serum","IgE","mg/L",0.347252111918643,"0.1","0.4"
"01-019","Unscheduled 0.1",0.1,"2015-05-02",9,"Serum","Magnesium","mmol/L",0.633489580269699,"0.62","0.99"
"01-019","Unscheduled 0.1",0.1,"2015-05-02",9,"Serum","Phosphorus","mmol/L",1.28834104049671,"0.97","1.45"
"01-019","Unscheduled 0.1",0.1,"2015-05-02",9,"Blood","Platelet count","x 109/L",515.246402433107,"150","350"
"01-019","Unscheduled 0.1",0.1,"2015-05-02",9,"Serum","Potassium","mmol/L",5.29651636137622,"3.5","5"
"01-019","Unscheduled 0.1",0.1,"2015-05-02",9,"Blood","RBC count","x 1012 cells/L",3.47910212225057,"4.2","5.9"
"01-019","Unscheduled 0.1",0.1,"2015-05-02",9,"Serum","Sodium","mmol/L",147.142711561465,"136","145"
"01-019","Unscheduled 0.1",0.1,"2015-05-02",9,"Serum","Total Bilirubin","μmol/L",0,"5.1","20.5"
"01-019","Unscheduled 0.1",0.1,"2015-05-02",9,"Blood","WBC count","x 109 cells/L",9.09537455897551,"4.5","11"
"01-019","Visit 1",1,"2015-06-23",61,"Serum","Albumin","g/L",53.6742363225555,"35","55"
"01-019","Visit 1",1,"2015-06-23",61,"Urine","Albumin/Creatinine","mg/g",15.4145377950794,"0","30"
"01-019","Visit 1",1,"2015-06-23",61,"Serum","Alkaline phosphatase (ALP)","μkat/L",0.474353806872294,"0.5","1.5"
"01-019","Visit 1",1,"2015-06-23",61,"Serum","Aminotransferase, alanine (ALT)","pkat/L",0.69993118658471,"0","0.58"
"01-019","Visit 1",1,"2015-06-23",61,"Serum","Aminotransferase, aspartate (AST)","pkat/L",0.400981261816958,"0","0.58"
"01-019","Visit 1",1,"2015-06-23",61,"Serum","Bicarbonate","mmol/L",27.0580627332013,"23","28"
"01-019","Visit 1",1,"2015-06-23",61,"Serum","Blood Urea Nitrogen","mmol/L",10.7012348374879,"2.9","7.1"
"01-019","Visit 1",1,"2015-06-23",61,"Serum","Calcium","mmol/L",2.38488313549958,"2.2","2.6"
"01-019","Visit 1",1,"2015-06-23",61,"Serum","Chloride","mmol/L",104.62016972853,"98","106"
"01-019","Visit 1",1,"2015-06-23",61,"Serum","Creatinine","μmol/L",106.809538653206,"61.9","115"
"01-019","Visit 1",1,"2015-06-23",61,"Serum","Cystatin C","mg/L",0.814032492503781,"0.51","0.98"
"01-019","Visit 1",1,"2015-06-23",61,"Serum","Direct Bilirubin","μmol/L",9.45558484208053,"0","5.1"
"01-019","Visit 1",1,"2015-06-23",61,"Serum","eGFR","μmol/L",34.8574981773178,"61.9","115"
"01-019","Visit 1",1,"2015-06-23",61,"Serum","eGFRcys","μmol/L",96.5015165743508,"61.9","115"
"01-019","Visit 1",1,"2015-06-23",61,"Serum","IgE","mg/L",0.296699455589047,"0.1","0.4"
"01-019","Visit 1",1,"2015-06-23",61,"Serum","Magnesium","mmol/L",0.676597831717633,"0.62","0.99"
"01-019","Visit 1",1,"2015-06-23",61,"Serum","Phosphorus","mmol/L",0.828807376949419,"0.97","1.45"
"01-019","Visit 1",1,"2015-06-23",61,"Blood","Platelet count","x 109/L",260.948775252311,"150","350"
"01-019","Visit 1",1,"2015-06-23",61,"Serum","Potassium","mmol/L",5.11369655473138,"3.5","5"
"01-019","Visit 1",1,"2015-06-23",61,"Blood","RBC count","x 1012 cells/L",3.78217169464134,"4.2","5.9"
"01-019","Visit 1",1,"2015-06-23",61,"Serum","Sodium","mmol/L",136.583269810952,"136","145"
"01-019","Visit 1",1,"2015-06-23",61,"Serum","Total Bilirubin","μmol/L",0,"5.1","20.5"
"01-019","Visit 1",1,"2015-06-23",61,"Blood","WBC count","x 109 cells/L",2.82461298602866,"4.5","11"
"01-019","Visit 2",2,"2015-08-18",117,"Serum","Albumin","g/L",47.3290444071361,"35","55"
"01-019","Visit 2",2,"2015-08-18",117,"Urine","Albumin/Creatinine","mg/g",17.9721896942286,"0","30"
"01-019","Visit 2",2,"2015-08-18",117,"Serum","Alkaline phosphatase (ALP)","μkat/L",1.21433816871007,"0.5","1.5"
"01-019","Visit 2",2,"2015-08-18",117,"Serum","Aminotransferase, alanine (ALT)","pkat/L",0.294977076791404,"0","0.58"
"01-019","Visit 2",2,"2015-08-18",117,"Serum","Aminotransferase, aspartate (AST)","pkat/L",0.336768369666697,"0","0.58"
"01-019","Visit 2",2,"2015-08-18",117,"Serum","Bicarbonate","mmol/L",22.4070501958674,"23","28"
"01-019","Visit 2",2,"2015-08-18",117,"Serum","Blood Urea Nitrogen","mmol/L",4.73088572228431,"2.9","7.1"
"01-019","Visit 2",2,"2015-08-18",117,"Serum","Calcium","mmol/L",2.44080902891215,"2.2","2.6"
"01-019","Visit 2",2,"2015-08-18",117,"Serum","Chloride","mmol/L",103.588677494721,"98","106"
"01-019","Visit 2",2,"2015-08-18",117,"Serum","Creatinine","μmol/L",82.6618680264485,"61.9","115"
"01-019","Visit 2",2,"2015-08-18",117,"Serum","Cystatin C","mg/L",0.950906541001624,"0.51","0.98"
"01-019","Visit 2",2,"2015-08-18",117,"Serum","Direct Bilirubin","μmol/L",4.83223401224741,"0","5.1"
"01-019","Visit 2",2,"2015-08-18",117,"Serum","eGFR","μmol/L",65.4508819452408,"61.9","115"
"01-019","Visit 2",2,"2015-08-18",117,"Serum","eGFRcys","μmol/L",62.6718954908198,"61.9","115"
"01-019","Visit 2",2,"2015-08-18",117,"Serum","IgE","mg/L",0.319686979759832,"0.1","0.4"
"01-019","Visit 2",2,"2015-08-18",117,"Serum","Magnesium","mmol/L",0.788483960584461,"0.62","0.99"
"01-019","Visit 2",2,"2015-08-18",117,"Serum","Phosphorus","mmol/L",1.11711900685504,"0.97","1.45"
"01-019","Visit 2",2,"2015-08-18",117,"Blood","Platelet count","x 109/L",299.255422401583,"150","350"
"01-019","Visit 2",2,"2015-08-18",117,"Serum","Potassium","mmol/L",4.52609950257348,"3.5","5"
"01-019","Visit 2",2,"2015-08-18",117,"Blood","RBC count","x 1012 cells/L",4.69570289329315,"4.2","5.9"
"01-019","Visit 2",2,"2015-08-18",117,"Serum","Sodium","mmol/L",132.489417035061,"136","145"
"01-019","Visit 2",2,"2015-08-18",117,"Serum","Total Bilirubin","μmol/L",7.27009230725432,"5.1","20.5"
"01-019","Visit 2",2,"2015-08-18",117,"Blood","WBC count","x 109 cells/L",10.6896256762971,"4.5","11"
"01-019","Visit 4",4,"2015-12-01",222,"Serum","Albumin","g/L",39.3857653323091,"35","55"
"01-019","Visit 4",4,"2015-12-01",222,"Urine","Albumin/Creatinine","mg/g",0,"0","30"
"01-019","Visit 4",4,"2015-12-01",222,"Serum","Alkaline phosphatase (ALP)","μkat/L",1.31618877197464,"0.5","1.5"
"01-019","Visit 4",4,"2015-12-01",222,"Serum","Aminotransferase, alanine (ALT)","pkat/L",0,"0","0.58"
"01-019","Visit 4",4,"2015-12-01",222,"Serum","Aminotransferase, aspartate (AST)","pkat/L",0.956114506457816,"0","0.58"
"01-019","Visit 4",4,"2015-12-01",222,"Serum","Bicarbonate","mmol/L",26.9314338313355,"23","28"
"01-019","Visit 4",4,"2015-12-01",222,"Serum","Blood Urea Nitrogen","mmol/L",6.32665803397467,"2.9","7.1"
"01-019","Visit 4",4,"2015-12-01",222,"Serum","Calcium","mmol/L",2.39684939183821,"2.2","2.6"
"01-019","Visit 4",4,"2015-12-01",222,"Serum","Chloride","mmol/L",102.705468174074,"98","106"
"01-019","Visit 4",4,"2015-12-01",222,"Serum","Creatinine","μmol/L",107.493038552737,"61.9","115"
"01-019","Visit 4",4,"2015-12-01",222,"Serum","Cystatin C","mg/L",0.978178639403942,"0.51","0.98"
"01-019","Visit 4",4,"2015-12-01",222,"Serum","Direct Bilirubin","μmol/L",3.27066716939137,"0","5.1"
"01-019","Visit 4",4,"2015-12-01",222,"Serum","eGFR","μmol/L",100.262210308488,"61.9","115"
"01-019","Visit 4",4,"2015-12-01",222,"Serum","eGFRcys","μmol/L",140.130113625238,"61.9","115"
"01-019","Visit 4",4,"2015-12-01",222,"Serum","IgE","mg/L",0.244301151015768,"0.1","0.4"
"01-019","Visit 4",4,"2015-12-01",222,"Serum","Magnesium","mmol/L",0.560889152640005,"0.62","0.99"
"01-019","Visit 4",4,"2015-12-01",222,"Serum","Phosphorus","mmol/L",1.32387422964036,"0.97","1.45"
"01-019","Visit 4",4,"2015-12-01",222,"Blood","Platelet count","x 109/L",239.114822758414,"150","350"
"01-019","Visit 4",4,"2015-12-01",222,"Serum","Potassium","mmol/L",3.74131485668262,"3.5","5"
"01-019","Visit 4",4,"2015-12-01",222,"Blood","RBC count","x 1012 cells/L",4.58981761565979,"4.2","5.9"
"01-019","Visit 4",4,"2015-12-01",222,"Serum","Sodium","mmol/L",140.619751604661,"136","145"
"01-019","Visit 4",4,"2015-12-01",222,"Serum","Total Bilirubin","μmol/L",16.9632915101131,"5.1","20.5"
"01-019","Visit 4",4,"2015-12-01",222,"Blood","WBC count","x 109 cells/L",7.320602595579,"4.5","11"
"01-021","Screening",0,"2015-10-04",1,"Serum","Albumin","g/L",52.8690806495984,"35","55"
"01-021","Screening",0,"2015-10-04",1,"Urine","Albumin/Creatinine","mg/g",13.811537464397,"0","30"
"01-021","Screening",0,"2015-10-04",1,"Serum","Alkaline phosphatase (ALP)","μkat/L",1.35110483186218,"0.5","1.5"
"01-021","Screening",0,"2015-10-04",1,"Serum","Aminotransferase, alanine (ALT)","pkat/L",0.483603296951761,"0","0.58"
"01-021","Screening",0,"2015-10-04",1,"Serum","Aminotransferase, aspartate (AST)","pkat/L",0.779320689235383,"0","0.58"
"01-021","Screening",0,"2015-10-04",1,"Serum","Bicarbonate","mmol/L",25.3459174880254,"23","28"
"01-021","Screening",0,"2015-10-04",1,"Serum","Blood Urea Nitrogen","mmol/L",6.01308097715092,"2.9","7.1"
"01-021","Screening",0,"2015-10-04",1,"Serum","Calcium","mmol/L",2.68117455890718,"2.2","2.6"
"01-021","Screening",0,"2015-10-04",1,"Serum","Chloride","mmol/L",106.929768623876,"98","106"
"01-021","Screening",0,"2015-10-04",1,"Serum","Creatinine","μmol/L",58.6106236071532,"61.9","115"
"01-021","Screening",0,"2015-10-04",1,"Serum","Cystatin C","mg/L",0.566787157858942,"0.51","0.98"
"01-021","Screening",0,"2015-10-04",1,"Serum","Direct Bilirubin","μmol/L",4.79243541041045,"0","5.1"
"01-021","Screening",0,"2015-10-04",1,"Serum","eGFR","μmol/L",82.9405078367717,"61.9","115"
"01-021","Screening",0,"2015-10-04",1,"Serum","eGFRcys","μmol/L",91.1419364288067,"61.9","115"
"01-021","Screening",0,"2015-10-04",1,"Serum","IgE","mg/L",0.194290381965418,"0.1","0.4"
"01-021","Screening",0,"2015-10-04",1,"Serum","Magnesium","mmol/L",0.901066016286859,"0.62","0.99"
"01-021","Screening",0,"2015-10-04",1,"Serum","Phosphorus","mmol/L",1.19594466830913,"0.97","1.45"
"01-021","Screening",0,"2015-10-04",1,"Blood","Platelet count","x 109/L",452.66737838943,"150","350"
"01-021","Screening",0,"2015-10-04",1,"Serum","Potassium","mmol/L",4.96638909255553,"3.5","5"
"01-021","Screening",0,"2015-10-04",1,"Blood","RBC count","x 1012 cells/L",3.77589295151157,"4.2","5.9"
"01-021","Screening",0,"2015-10-04",1,"Serum","Sodium","mmol/L",142.682351357638,"136","145"
"01-021","Screening",0,"2015-10-04",1,"Serum","Total Bilirubin","μmol/L",0,"5.1","20.5"
"01-021","Screening",0,"2015-10-04",1,"Blood","WBC count","x 109 cells/L",5.51459729665684,"4.5","11"
"01-022","Screening",0,"2015-10-01",1,"Serum","Albumin","g/L",67.9760357220877,"35","55"
"01-022","Screening",0,"2015-10-01",1,"Urine","Albumin/Creatinine","mg/g",19.9609487233648,"0","30"
"01-022","Screening",0,"2015-10-01",1,"Serum","Alkaline phosphatase (ALP)","μkat/L",1.04181072229679,"0.5","1.5"
"01-022","Screening",0,"2015-10-01",1,"Serum","Aminotransferase, alanine (ALT)","pkat/L",0.956892776583842,"0","0.58"
"01-022","Screening",0,"2015-10-01",1,"Serum","Aminotransferase, aspartate (AST)","pkat/L",0.39112543698853,"0","0.58"
"01-022","Screening",0,"2015-10-01",1,"Serum","Bicarbonate","mmol/L",25.1173734113186,"23","28"
"01-022","Screening",0,"2015-10-01",1,"Serum","Blood Urea Nitrogen","mmol/L",5.06518702292525,"2.9","7.1"
"01-022","Screening",0,"2015-10-01",1,"Serum","Calcium","mmol/L",2.69795209284174,"2.2","2.6"
"01-022","Screening",0,"2015-10-01",1,"Serum","Chloride","mmol/L",103.32245526181,"98","106"
"01-022","Screening",0,"2015-10-01",1,"Serum","Creatinine","μmol/L",91.8741619203203,"61.9","115"
"01-022","Screening",0,"2015-10-01",1,"Serum","Cystatin C","mg/L",0.906238830152925,"0.51","0.98"
"01-022","Screening",0,"2015-10-01",1,"Serum","Direct Bilirubin","μmol/L",3.9708646425065,"0","5.1"
"01-022","Screening",0,"2015-10-01",1,"Serum","eGFR","μmol/L",45.872227552004,"61.9","115"
"01-022","Screening",0,"2015-10-01",1,"Serum","eGFRcys","μmol/L",95.8328503062326,"61.9","115"
"01-022","Screening",0,"2015-10-01",1,"Serum","IgE","mg/L",0.475939198055769,"0.1","0.4"
"01-022","Screening",0,"2015-10-01",1,"Serum","Magnesium","mmol/L",0.747529111731197,"0.62","0.99"
"01-022","Screening",0,"2015-10-01",1,"Serum","Phosphorus","mmol/L",0.623365661858237,"0.97","1.45"
"01-022","Screening",0,"2015-10-01",1,"Blood","Platelet count","x 109/L",539.338536764273,"150","350"
"01-022","Screening",0,"2015-10-01",1,"Serum","Potassium","mmol/L",4.68746446309211,"3.5","5"
"01-022","Screening",0,"2015-10-01",1,"Blood","RBC count","x 1012 cells/L",4.59857471676648,"4.2","5.9"
"01-022","Screening",0,"2015-10-01",1,"Serum","Sodium","mmol/L",135.986985220868,"136","145"
"01-022","Screening",0,"2015-10-01",1,"Serum","Total Bilirubin","μmol/L",0,"5.1","20.5"
"01-022","Screening",0,"2015-10-01",1,"Blood","WBC count","x 109 cells/L",4.44902792701964,"4.5","11"
"01-022","Visit 1",1,"2015-11-26",57,"Serum","Albumin","g/L",59.3832095686964,"35","55"
"01-022","Visit 1",1,"2015-11-26",57,"Urine","Albumin/Creatinine","mg/g",1.69485712406557,"0","30"
"01-022","Visit 1",1,"2015-11-26",57,"Serum","Alkaline phosphatase (ALP)","μkat/L",0.965526662161835,"0.5","1.5"
"01-022","Visit 1",1,"2015-11-26",57,"Serum","Aminotransferase, alanine (ALT)","pkat/L",1.04221854589923,"0","0.58"
"01-022","Visit 1",1,"2015-11-26",57,"Serum","Aminotransferase, aspartate (AST)","pkat/L",0.447900142522504,"0","0.58"
"01-022","Visit 1",1,"2015-11-26",57,"Serum","Bicarbonate","mmol/L",27.8546063031152,"23","28"
"01-022","Visit 1",1,"2015-11-26",57,"Serum","Blood Urea Nitrogen","mmol/L",6.2643772957731,"2.9","7.1"
"01-022","Visit 1",1,"2015-11-26",57,"Serum","Calcium","mmol/L",2.21957959125096,"2.2","2.6"
"01-022","Visit 1",1,"2015-11-26",57,"Serum","Chloride","mmol/L",109.88179419557,"98","106"
"01-022","Visit 1",1,"2015-11-26",57,"Serum","Creatinine","μmol/L",78.9665801257641,"61.9","115"
"01-022","Visit 1",1,"2015-11-26",57,"Serum","Cystatin C","mg/L",0.789859968652875,"0.51","0.98"
"01-022","Visit 1",1,"2015-11-26",57,"Serum","Direct Bilirubin","μmol/L",1.13953687042616,"0","5.1"
"01-022","Visit 1",1,"2015-11-26",57,"Serum","eGFR","μmol/L",36.7896054229036,"61.9","115"
"01-022","Visit 1",1,"2015-11-26",57,"Serum","eGFRcys","μmol/L",72.5741066711578,"61.9","115"
"01-022","Visit 1",1,"2015-11-26",57,"Serum","IgE","mg/L",0.309029279718598,"0.1","0.4"
"01-022","Visit 1",1,"2015-11-26",57,"Serum","Magnesium","mmol/L",0.753445681960065,"0.62","0.99"
"01-022","Visit 1",1,"2015-11-26",57,"Serum","Phosphorus","mmol/L",1.19350704985505,"0.97","1.45"
"01-022","Visit 1",1,"2015-11-26",57,"Blood","Platelet count","x 109/L",318.991240190099,"150","350"
"01-022","Visit 1",1,"2015-11-26",57,"Serum","Potassium","mmol/L",5.49106613087946,"3.5","5"
"01-022","Visit 1",1,"2015-11-26",57,"Blood","RBC count","x 1012 cells/L",4.98417466859833,"4.2","5.9"
"01-022","Visit 1",1,"2015-11-26",57,"Serum","Sodium","mmol/L",149.280586762036,"136","145"
"01-022","Visit 1",1,"2015-11-26",57,"Serum","Total Bilirubin","μmol/L",0,"5.1","20.5"
"01-022","Visit 1",1,"2015-11-26",57,"Blood","WBC count","x 109 cells/L",5.04857045514306,"4.5","11"
"01-022","Visit 2",2,"2016-01-23",115,"Serum","Albumin","g/L",40.865213400541,"35","55"
"01-022","Visit 2",2,"2016-01-23",115,"Urine","Albumin/Creatinine","mg/g",2.32573949155933,"0","30"
"01-022","Visit 2",2,"2016-01-23",115,"Serum","Alkaline phosphatase (ALP)","μkat/L",1.33339240526395,"0.5","1.5"
"01-022","Visit 2",2,"2016-01-23",115,"Serum","Aminotransferase, alanine (ALT)","pkat/L",0.170397092469809,"0","0.58"
"01-022","Visit 2",2,"2016-01-23",115,"Serum","Aminotransferase, aspartate (AST)","pkat/L",0.625724228368904,"0","0.58"
"01-022","Visit 2",2,"2016-01-23",115,"Serum","Bicarbonate","mmol/L",22.3707405070449,"23","28"
"01-022","Visit 2",2,"2016-01-23",115,"Serum","Blood Urea Nitrogen","mmol/L",4.17803899297407,"2.9","7.1"
"01-022","Visit 2",2,"2016-01-23",115,"Serum","Calcium","mmol/L",2.62498680829792,"2.2","2.6"
"01-022","Visit 2",2,"2016-01-23",115,"Serum","Chloride","mmol/L",95.0844156859417,"98","106"
"01-022","Visit 2",2,"2016-01-23",115,"Serum","Creatinine","μmol/L",67.8497573255466,"61.9","115"
"01-022","Visit 2",2,"2016-01-23",115,"Serum","Cystatin C","mg/L",0.794533112159008,"0.51","0.98"
"01-022","Visit 2",2,"2016-01-23",115,"Serum","Direct Bilirubin","μmol/L",1.32276808196499,"0","5.1"
"01-022","Visit 2",2,"2016-01-23",115,"Serum","eGFR","μmol/L",80.4601320820989,"61.9","115"
"01-022","Visit 2",2,"2016-01-23",115,"Serum","eGFRcys","μmol/L",94.4738734195199,"61.9","115"
"01-022","Visit 2",2,"2016-01-23",115,"Serum","IgE","mg/L",0.344309726240645,"0.1","0.4"
"01-022","Visit 2",2,"2016-01-23",115,"Serum","Magnesium","mmol/L",0.851825361269538,"0.62","0.99"
"01-022","Visit 2",2,"2016-01-23",115,"Serum","Phosphorus","mmol/L",0.900057793869664,"0.97","1.45"
"01-022","Visit 2",2,"2016-01-23",115,"Blood","Platelet count","x 109/L",211.79767658238,"150","350"
"01-022","Visit 2",2,"2016-01-23",115,"Serum","Potassium","mmol/L",3.25086393617941,"3.5","5"
"01-022","Visit 2",2,"2016-01-23",115,"Blood","RBC count","x 1012 cells/L",5.33376872238716,"4.2","5.9"
"01-022","Visit 2",2,"2016-01-23",115,"Serum","Sodium","mmol/L",144.489272732425,"136","145"
"01-022","Visit 2",2,"2016-01-23",115,"Serum","Total Bilirubin","μmol/L",15.7559627858419,"5.1","20.5"
"01-022","Visit 2",2,"2016-01-23",115,"Blood","WBC count","x 109 cells/L",13.4881058118097,"4.5","11"
"01-022","Visit 3",3,"2016-03-11",163,"Serum","Albumin","g/L",43.6231947273264,"35","55"
"01-022","Visit 3",3,"2016-03-11",163,"Urine","Albumin/Creatinine","mg/g",17.239126458098,"0","30"
"01-022","Visit 3",3,"2016-03-11",163,"Serum","Alkaline phosphatase (ALP)","μkat/L",1.41127632853283,"0.5","1.5"
"01-022","Visit 3",3,"2016-03-11",163,"Serum","Aminotransferase, alanine (ALT)","pkat/L",0.780192226197513,"0","0.58"
"01-022","Visit 3",3,"2016-03-11",163,"Serum","Aminotransferase, aspartate (AST)","pkat/L",0.0022954115192883,"0","0.58"
"01-022","Visit 3",3,"2016-03-11",163,"Serum","Bicarbonate","mmol/L",27.5174964421071,"23","28"
"01-022","Visit 3",3,"2016-03-11",163,"Serum","Blood Urea Nitrogen","mmol/L",2.90420612662107,"2.9","7.1"
"01-022","Visit 3",3,"2016-03-11",163,"Serum","Calcium","mmol/L",2.33845637504011,"2.2","2.6"
"01-022","Visit 3",3,"2016-03-11",163,"Serum","Chloride","mmol/L",104.498549677474,"98","106"
"01-022","Visit 3",3,"2016-03-11",163,"Serum","Creatinine","μmol/L",98.3116926916797,"61.9","115"
"01-022","Visit 3",3,"2016-03-11",163,"Serum","Cystatin C","mg/L",0.891714932075278,"0.51","0.98"
"01-022","Visit 3",3,"2016-03-11",163,"Serum","Direct Bilirubin","μmol/L",4.59163219290443,"0","5.1"
"01-022","Visit 3",3,"2016-03-11",163,"Serum","eGFR","μmol/L",56.6098249064991,"61.9","115"
"01-022","Visit 3",3,"2016-03-11",163,"Serum","eGFRcys","μmol/L",73.6595243523678,"61.9","115"
"01-022","Visit 3",3,"2016-03-11",163,"Serum","IgE","mg/L",0.470640552406517,"0.1","0.4"
"01-022","Visit 3",3,"2016-03-11",163,"Serum","Magnesium","mmol/L",0.773157606118968,"0.62","0.99"
"01-022","Visit 3",3,"2016-03-11",163,"Serum","Phosphorus","mmol/L",1.31659890168389,"0.97","1.45"
"01-022","Visit 3",3,"2016-03-11",163,"Blood","Platelet count","x 109/L",371.369215877901,"150","350"
"01-022","Visit 3",3,"2016-03-11",163,"Serum","Potassium","mmol/L",3.76980556251926,"3.5","5"
"01-022","Visit 3",3,"2016-03-11",163,"Blood","RBC count","x 1012 cells/L",4.42703713407479,"4.2","5.9"
"01-022","Visit 3",3,"2016-03-11",163,"Serum","Sodium","mmol/L",147.36848806456,"136","145"
"01-022","Visit 3",3,"2016-03-11",163,"Serum","Total Bilirubin","μmol/L",13.1437130550135,"5.1","20.5"
"01-022","Visit 3",3,"2016-03-11",163,"Blood","WBC count","x 109 cells/L",9.86750490591148,"4.5","11"
"01-022","Visit 4",4,"2016-05-13",226,"Serum","Albumin","g/L",31.6264786497198,"35","55"
"01-022","Visit 4",4,"2016-05-13",226,"Urine","Albumin/Creatinine","mg/g",0,"0","30"
"01-022","Visit 4",4,"2016-05-13",226,"Serum","Alkaline phosphatase (ALP)","μkat/L",1.12812049893977,"0.5","1.5"
"01-022","Visit 4",4,"2016-05-13",226,"Serum","Aminotransferase, alanine (ALT)","pkat/L",0.313897257352951,"0","0.58"
"01-022","Visit 4",4,"2016-05-13",226,"Serum","Aminotransferase, aspartate (AST)","pkat/L",0.364782249773055,"0","0.58"
"01-022","Visit 4",4,"2016-05-13",226,"Serum","Bicarbonate","mmol/L",23.487557350416,"23","28"
"01-022","Visit 4",4,"2016-05-13",226,"Serum","Blood Urea Nitrogen","mmol/L",5.64905160912161,"2.9","7.1"
"01-022","Visit 4",4,"2016-05-13",226,"Serum","Calcium","mmol/L",2.53261335002895,"2.2","2.6"
"01-022","Visit 4",4,"2016-05-13",226,"Serum","Chloride","mmol/L",107.066178466667,"98","106"
"01-022","Visit 4",4,"2016-05-13",226,"Serum","Creatinine","μmol/L",87.185610250828,"61.9","115"
"01-022","Visit 4",4,"2016-05-13",226,"Serum","Cystatin C","mg/L",1.2084624952523,"0.51","0.98"
"01-022","Visit 4",4,"2016-05-13",226,"Serum","Direct Bilirubin","μmol/L",8.32587432935146,"0","5.1"
"01-022","Visit 4",4,"2016-05-13",226,"Serum","eGFR","μmol/L",102.791278837635,"61.9","115"
"01-022","Visit 4",4,"2016-05-13",226,"Serum","eGFRcys","μmol/L",106.502519347629,"61.9","115"
"01-022","Visit 4",4,"2016-05-13",226,"Serum","IgE","mg/L",0.0778928328512812,"0.1","0.4"
"01-022","Visit 4",4,"2016-05-13",226,"Serum","Magnesium","mmol/L",1.08283933677944,"0.62","0.99"
"01-022","Visit 4",4,"2016-05-13",226,"Serum","Phosphorus","mmol/L",1.39508515952896,"0.97","1.45"
"01-022","Visit 4",4,"2016-05-13",226,"Blood","Platelet count","x 109/L",340.516609416462,"150","350"
"01-022","Visit 4",4,"2016-05-13",226,"Serum","Potassium","mmol/L",6.31798544448534,"3.5","5"
"01-022","Visit 4",4,"2016-05-13",226,"Blood","RBC count","x 1012 cells/L",5.1981110904312,"4.2","5.9"
"01-022","Visit 4",4,"2016-05-13",226,"Serum","Sodium","mmol/L",143.04767578183,"136","145"
"01-022","Visit 4",4,"2016-05-13",226,"Serum","Total Bilirubin","μmol/L",15.1867626222308,"5.1","20.5"
"01-022","Visit 4",4,"2016-05-13",226,"Blood","WBC count","x 109 cells/L",6.57725000007872,"4.5","11"
"01-022","Visit 5",5,"2016-07-08",282,"Serum","Albumin","g/L",33.9696384268304,"35","55"
"01-022","Visit 5",5,"2016-07-08",282,"Urine","Albumin/Creatinine","mg/g",18.616765975184,"0","30"
"01-022","Visit 5",5,"2016-07-08",282,"Serum","Alkaline phosphatase (ALP)","μkat/L",0.87565104575318,"0.5","1.5"
"01-022","Visit 5",5,"2016-07-08",282,"Serum","Aminotransferase, alanine (ALT)","pkat/L",0,"0","0.58"
"01-022","Visit 5",5,"2016-07-08",282,"Serum","Aminotransferase, aspartate (AST)","pkat/L",1.5536701951046,"0","0.58"
"01-022","Visit 5",5,"2016-07-08",282,"Serum","Bicarbonate","mmol/L",25.3613266191994,"23","28"
"01-022","Visit 5",5,"2016-07-08",282,"Serum","Blood Urea Nitrogen","mmol/L",4.97333152284739,"2.9","7.1"
"01-022","Visit 5",5,"2016-07-08",282,"Serum","Calcium","mmol/L",2.80528179632757,"2.2","2.6"
"01-022","Visit 5",5,"2016-07-08",282,"Serum","Chloride","mmol/L",98.5992874396047,"98","106"
"01-022","Visit 5",5,"2016-07-08",282,"Serum","Creatinine","μmol/L",79.498754312833,"61.9","115"
"01-022","Visit 5",5,"2016-07-08",282,"Serum","Cystatin C","mg/L",0.933273041884904,"0.51","0.98"
"01-022","Visit 5",5,"2016-07-08",282,"Serum","Direct Bilirubin","μmol/L",0,"0","5.1"
"01-022","Visit 5",5,"2016-07-08",282,"Serum","eGFR","μmol/L",114.991805110152,"61.9","115"
"01-022","Visit 5",5,"2016-07-08",282,"Serum","eGFRcys","μmol/L",90.9211196308219,"61.9","115"
"01-022","Visit 5",5,"2016-07-08",282,"Serum","IgE","mg/L",0.27987310233698,"0.1","0.4"
"01-022","Visit 5",5,"2016-07-08",282,"Serum","Magnesium","mmol/L",0.358056819700666,"0.62","0.99"
"01-022","Visit 5",5,"2016-07-08",282,"Serum","Phosphorus","mmol/L",1.29609811827703,"0.97","1.45"
"01-022","Visit 5",5,"2016-07-08",282,"Blood","Platelet count","x 109/L",148.482895281866,"150","350"
"01-022","Visit 5",5,"2016-07-08",282,"Serum","Potassium","mmol/L",5.24995003603562,"3.5","5"
"01-022","Visit 5",5,"2016-07-08",282,"Blood","RBC count","x 1012 cells/L",5.28490398430063,"4.2","5.9"
"01-022","Visit 5",5,"2016-07-08",282,"Serum","Sodium","mmol/L",135.262129406638,"136","145"
"01-022","Visit 5",5,"2016-07-08",282,"Serum","Total Bilirubin","μmol/L",20.758267329599,"5.1","20.5"
"01-022","Visit 5",5,"2016-07-08",282,"Blood","WBC count","x 109 cells/L",12.3094704308401,"4.5","11"
"01-022","Unscheduled 5.1",5.1,"2016-07-16",290,"Serum","Albumin","g/L",35.4107709010504,"35","55"
"01-022","Unscheduled 5.1",5.1,"2016-07-16",290,"Urine","Albumin/Creatinine","mg/g",4.48663562174785,"0","30"
"01-022","Unscheduled 5.1",5.1,"2016-07-16",290,"Serum","Alkaline phosphatase (ALP)","μkat/L",0.288023073239606,"0.5","1.5"
"01-022","Unscheduled 5.1",5.1,"2016-07-16",290,"Serum","Aminotransferase, alanine (ALT)","pkat/L",0,"0","0.58"
"01-022","Unscheduled 5.1",5.1,"2016-07-16",290,"Serum","Aminotransferase, aspartate (AST)","pkat/L",0,"0","0.58"
"01-022","Unscheduled 5.1",5.1,"2016-07-16",290,"Serum","Bicarbonate","mmol/L",28.0120751648504,"23","28"
"01-022","Unscheduled 5.1",5.1,"2016-07-16",290,"Serum","Blood Urea Nitrogen","mmol/L",5.53550825804229,"2.9","7.1"
"01-022","Unscheduled 5.1",5.1,"2016-07-16",290,"Serum","Calcium","mmol/L",2.38908046980891,"2.2","2.6"
"01-022","Unscheduled 5.1",5.1,"2016-07-16",290,"Serum","Chloride","mmol/L",98.8423687798605,"98","106"
"01-022","Unscheduled 5.1",5.1,"2016-07-16",290,"Serum","Creatinine","μmol/L",114.173653688467,"61.9","115"
"01-022","Unscheduled 5.1",5.1,"2016-07-16",290,"Serum","Cystatin C","mg/L",0.581309735964363,"0.51","0.98"
"01-022","Unscheduled 5.1",5.1,"2016-07-16",290,"Serum","Direct Bilirubin","μmol/L",0.113419381992882,"0","5.1"
"01-022","Unscheduled 5.1",5.1,"2016-07-16",290,"Serum","eGFR","μmol/L",114.428158201904,"61.9","115"
"01-022","Unscheduled 5.1",5.1,"2016-07-16",290,"Serum","eGFRcys","μmol/L",74.1021727901269,"61.9","115"
"01-022","Unscheduled 5.1",5.1,"2016-07-16",290,"Serum","IgE","mg/L",0.197796805188737,"0.1","0.4"
"01-022","Unscheduled 5.1",5.1,"2016-07-16",290,"Serum","Magnesium","mmol/L",0.771958049088162,"0.62","0.99"
"01-022","Unscheduled 5.1",5.1,"2016-07-16",290,"Serum","Phosphorus","mmol/L",1.38593575099551,"0.97","1.45"
"01-022","Unscheduled 5.1",5.1,"2016-07-16",290,"Blood","Platelet count","x 109/L",151.166503695464,"150","350"
"01-022","Unscheduled 5.1",5.1,"2016-07-16",290,"Serum","Potassium","mmol/L",3.94584718507085,"3.5","5"
"01-022","Unscheduled 5.1",5.1,"2016-07-16",290,"Blood","RBC count","x 1012 cells/L",7.74772524941707,"4.2","5.9"
"01-022","Unscheduled 5.1",5.1,"2016-07-16",290,"Serum","Sodium","mmol/L",134.842531334606,"136","145"
"01-022","Unscheduled 5.1",5.1,"2016-07-16",290,"Serum","Total Bilirubin","μmol/L",20.0571520219722,"5.1","20.5"
"01-022","Unscheduled 5.1",5.1,"2016-07-16",290,"Blood","WBC count","x 109 cells/L",11.0521789058939,"4.5","11"
"01-022","Visit 6",6,"2016-09-02",338,"Serum","Albumin","g/L",38.247606978649,"35","55"
"01-022","Visit 6",6,"2016-09-02",338,"Urine","Albumin/Creatinine","mg/g",12.4994576032739,"0","30"
"01-022","Visit 6",6,"2016-09-02",338,"Serum","Alkaline phosphatase (ALP)","μkat/L",0.713626702562441,"0.5","1.5"
"01-022","Visit 6",6,"2016-09-02",338,"Serum","Aminotransferase, alanine (ALT)","pkat/L",0,"0","0.58"
"01-022","Visit 6",6,"2016-09-02",338,"Serum","Aminotransferase, aspartate (AST)","pkat/L",1.8628637240807,"0","0.58"
"01-022","Visit 6",6,"2016-09-02",338,"Serum","Bicarbonate","mmol/L",25.8165008659351,"23","28"
"01-022","Visit 6",6,"2016-09-02",338,"Serum","Blood Urea Nitrogen","mmol/L",2.26236893211206,"2.9","7.1"
"01-022","Visit 6",6,"2016-09-02",338,"Serum","Calcium","mmol/L",2.31902056968055,"2.2","2.6"
"01-022","Visit 6",6,"2016-09-02",338,"Serum","Chloride","mmol/L",95.8394472154312,"98","106"
"01-022","Visit 6",6,"2016-09-02",338,"Serum","Creatinine","μmol/L",124.065469939719,"61.9","115"
"01-022","Visit 6",6,"2016-09-02",338,"Serum","Cystatin C","mg/L",0.558657358266407,"0.51","0.98"
"01-022","Visit 6",6,"2016-09-02",338,"Serum","Direct Bilirubin","μmol/L",0,"0","5.1"
"01-022","Visit 6",6,"2016-09-02",338,"Serum","eGFR","μmol/L",115.312966491704,"61.9","115"
"01-022","Visit 6",6,"2016-09-02",338,"Serum","eGFRcys","μmol/L",86.7133453374464,"61.9","115"
"01-022","Visit 6",6,"2016-09-02",338,"Serum","IgE","mg/L",0.281734822449675,"0.1","0.4"
"01-022","Visit 6",6,"2016-09-02",338,"Serum","Magnesium","mmol/L",0.881706312544495,"0.62","0.99"
"01-022","Visit 6",6,"2016-09-02",338,"Serum","Phosphorus","mmol/L",1.34716760208585,"0.97","1.45"
"01-022","Visit 6",6,"2016-09-02",338,"Blood","Platelet count","x 109/L",150.32714303224,"150","350"
"01-022","Visit 6",6,"2016-09-02",338,"Serum","Potassium","mmol/L",4.10175864734466,"3.5","5"
"01-022","Visit 6",6,"2016-09-02",338,"Blood","RBC count","x 1012 cells/L",5.2629055203491,"4.2","5.9"
"01-022","Visit 6",6,"2016-09-02",338,"Serum","Sodium","mmol/L",135.933785518341,"136","145"
"01-022","Visit 6",6,"2016-09-02",338,"Serum","Total Bilirubin","μmol/L",18.6045938631504,"5.1","20.5"
"01-022","Visit 6",6,"2016-09-02",338,"Blood","WBC count","x 109 cells/L",11.0121536899567,"4.5","11"
"01-022","End of Study",7,"2016-09-26",362,"Serum","Albumin","g/L",35.2620733807684,"35","55"
"01-022","End of Study",7,"2016-09-26",362,"Urine","Albumin/Creatinine","mg/g",4.47657188949755,"0","30"
"01-022","End of Study",7,"2016-09-26",362,"Serum","Alkaline phosphatase (ALP)","μkat/L",0.441352430907724,"0.5","1.5"
"01-022","End of Study",7,"2016-09-26",362,"Serum","Aminotransferase, alanine (ALT)","pkat/L",0,"0","0.58"
"01-022","End of Study",7,"2016-09-26",362,"Serum","Aminotransferase, aspartate (AST)","pkat/L",0,"0","0.58"
"01-022","End of Study",7,"2016-09-26",362,"Serum","Bicarbonate","mmol/L",24.5035300702406,"23","28"
"01-022","End of Study",7,"2016-09-26",362,"Serum","Blood Urea Nitrogen","mmol/L",5.42354424875092,"2.9","7.1"
"01-022","End of Study",7,"2016-09-26",362,"Serum","Calcium","mmol/L",2.2513376498783,"2.2","2.6"
"01-022","End of Study",7,"2016-09-26",362,"Serum","Chloride","mmol/L",100.115428278213,"98","106"
"01-022","End of Study",7,"2016-09-26",362,"Serum","Creatinine","μmol/L",87.8249254154458,"61.9","115"
"01-022","End of Study",7,"2016-09-26",362,"Serum","Cystatin C","mg/L",0.49309210083432,"0.51","0.98"
"01-022","End of Study",7,"2016-09-26",362,"Serum","Direct Bilirubin","μmol/L",1.13064471833762,"0","5.1"
"01-022","End of Study",7,"2016-09-26",362,"Serum","eGFR","μmol/L",113.702433628827,"61.9","115"
"01-022","End of Study",7,"2016-09-26",362,"Serum","eGFRcys","μmol/L",91.7182419130365,"61.9","115"
"01-022","End of Study",7,"2016-09-26",362,"Serum","IgE","mg/L",0.271403907081681,"0.1","0.4"
"01-022","End of Study",7,"2016-09-26",362,"Serum","Magnesium","mmol/L",0.883693555815685,"0.62","0.99"
"01-022","End of Study",7,"2016-09-26",362,"Serum","Phosphorus","mmol/L",1.22530360518155,"0.97","1.45"
"01-022","End of Study",7,"2016-09-26",362,"Blood","Platelet count","x 109/L",149.094537508815,"150","350"
"01-022","End of Study",7,"2016-09-26",362,"Serum","Potassium","mmol/L",4.8169753977635,"3.5","5"
"01-022","End of Study",7,"2016-09-26",362,"Blood","RBC count","x 1012 cells/L",6.55386325515548,"4.2","5.9"
"01-022","End of Study",7,"2016-09-26",362,"Serum","Sodium","mmol/L",135.454399580922,"136","145"
"01-022","End of Study",7,"2016-09-26",362,"Serum","Total Bilirubin","μmol/L",20.3251346168173,"5.1","20.5"
"01-022","End of Study",7,"2016-09-26",362,"Blood","WBC count","x 109 cells/L",10.7716195689069,"4.5","11"
"01-023","Screening",0,"2015-03-29",1,"Serum","Albumin","g/L",75.667599808643,"35","55"
"01-023","Screening",0,"2015-03-29",1,"Urine","Albumin/Creatinine","mg/g",0,"0","30"
"01-023","Screening",0,"2015-03-29",1,"Serum","Alkaline phosphatase (ALP)","μkat/L",1.02698863050704,"0.5","1.5"
"01-023","Screening",0,"2015-03-29",1,"Serum","Aminotransferase, alanine (ALT)","pkat/L",0.914743972042696,"0","0.58"
"01-023","Screening",0,"2015-03-29",1,"Serum","Aminotransferase, aspartate (AST)","pkat/L",0.281498909758651,"0","0.58"
"01-023","Screening",0,"2015-03-29",1,"Serum","Bicarbonate","mmol/L",23.0786591676408,"23","28"
"01-023","Screening",0,"2015-03-29",1,"Serum","Blood Urea Nitrogen","mmol/L",6.31720385152423,"2.9","7.1"
"01-023","Screening",0,"2015-03-29",1,"Serum","Calcium","mmol/L",2.22242405681836,"2.2","2.6"
"01-023","Screening",0,"2015-03-29",1,"Serum","Chloride","mmol/L",113.809023489666,"98","106"
"01-023","Screening",0,"2015-03-29",1,"Serum","Creatinine","μmol/L",125.882532194454,"61.9","115"
"01-023","Screening",0,"2015-03-29",1,"Serum","Cystatin C","mg/L",0.313584459188287,"0.51","0.98"
"01-023","Screening",0,"2015-03-29",1,"Serum","Direct Bilirubin","μmol/L",10.8651625698113,"0","5.1"
"01-023","Screening",0,"2015-03-29",1,"Serum","eGFR","μmol/L",60.0894301101204,"61.9","115"
"01-023","Screening",0,"2015-03-29",1,"Serum","eGFRcys","μmol/L",109.121692541744,"61.9","115"
"01-023","Screening",0,"2015-03-29",1,"Serum","IgE","mg/L",0.189942398831684,"0.1","0.4"
"01-023","Screening",0,"2015-03-29",1,"Serum","Magnesium","mmol/L",0.827139991851543,"0.62","0.99"
"01-023","Screening",0,"2015-03-29",1,"Serum","Phosphorus","mmol/L",1.23040922500851,"0.97","1.45"
"01-023","Screening",0,"2015-03-29",1,"Blood","Platelet count","x 109/L",260.589185067219,"150","350"
"01-023","Screening",0,"2015-03-29",1,"Serum","Potassium","mmol/L",5.09512067848552,"3.5","5"
"01-023","Screening",0,"2015-03-29",1,"Blood","RBC count","x 1012 cells/L",4.08969605141139,"4.2","5.9"
"01-023","Screening",0,"2015-03-29",1,"Serum","Sodium","mmol/L",147.39064367465,"136","145"
"01-023","Screening",0,"2015-03-29",1,"Serum","Total Bilirubin","μmol/L",0,"5.1","20.5"
"01-023","Screening",0,"2015-03-29",1,"Blood","WBC count","x 109 cells/L",2.02348859718023,"4.5","11"
"01-023","Unscheduled 1.1",1.1,"2015-06-06",70,"Serum","Albumin","g/L",32.7922121317449,"35","55"
"01-023","Unscheduled 1.1",1.1,"2015-06-06",70,"Urine","Albumin/Creatinine","mg/g",2.32867859492942,"0","30"
"01-023","Unscheduled 1.1",1.1,"2015-06-06",70,"Serum","Alkaline phosphatase (ALP)","μkat/L",1.2067133345792,"0.5","1.5"
"01-023","Unscheduled 1.1",1.1,"2015-06-06",70,"Serum","Aminotransferase, alanine (ALT)","pkat/L",0.904688299180117,"0","0.58"
"01-023","Unscheduled 1.1",1.1,"2015-06-06",70,"Serum","Aminotransferase, aspartate (AST)","pkat/L",0.897603277817264,"0","0.58"
"01-023","Unscheduled 1.1",1.1,"2015-06-06",70,"Serum","Bicarbonate","mmol/L",26.6266158965163,"23","28"
"01-023","Unscheduled 1.1",1.1,"2015-06-06",70,"Serum","Blood Urea Nitrogen","mmol/L",3.86742492072531,"2.9","7.1"
"01-023","Unscheduled 1.1",1.1,"2015-06-06",70,"Serum","Calcium","mmol/L",2.3255660741643,"2.2","2.6"
"01-023","Unscheduled 1.1",1.1,"2015-06-06",70,"Serum","Chloride","mmol/L",103.894072527622,"98","106"
"01-023","Unscheduled 1.1",1.1,"2015-06-06",70,"Serum","Creatinine","μmol/L",119.60137537686,"61.9","115"
"01-023","Unscheduled 1.1",1.1,"2015-06-06",70,"Serum","Cystatin C","mg/L",0.935745305451919,"0.51","0.98"
"01-023","Unscheduled 1.1",1.1,"2015-06-06",70,"Serum","Direct Bilirubin","μmol/L",7.68170424478409,"0","5.1"
"01-023","Unscheduled 1.1",1.1,"2015-06-06",70,"Serum","eGFR","μmol/L",54.3790668151921,"61.9","115"
"01-023","Unscheduled 1.1",1.1,"2015-06-06",70,"Serum","eGFRcys","μmol/L",106.169242273888,"61.9","115"
"01-023","Unscheduled 1.1",1.1,"2015-06-06",70,"Serum","IgE","mg/L",0.489670664477412,"0.1","0.4"
"01-023","Unscheduled 1.1",1.1,"2015-06-06",70,"Serum","Magnesium","mmol/L",0.828781956193359,"0.62","0.99"
"01-023","Unscheduled 1.1",1.1,"2015-06-06",70,"Serum","Phosphorus","mmol/L",1.5274791654631,"0.97","1.45"
"01-023","Unscheduled 1.1",1.1,"2015-06-06",70,"Blood","Platelet count","x 109/L",666.846545336546,"150","350"
"01-023","Unscheduled 1.1",1.1,"2015-06-06",70,"Serum","Potassium","mmol/L",4.30666886928689,"3.5","5"
"01-023","Unscheduled 1.1",1.1,"2015-06-06",70,"Blood","RBC count","x 1012 cells/L",5.44438949315102,"4.2","5.9"
"01-023","Unscheduled 1.1",1.1,"2015-06-06",70,"Serum","Sodium","mmol/L",139.909834966831,"136","145"
"01-023","Unscheduled 1.1",1.1,"2015-06-06",70,"Serum","Total Bilirubin","μmol/L",0.226232698942488,"5.1","20.5"
"01-023","Unscheduled 1.1",1.1,"2015-06-06",70,"Blood","WBC count","x 109 cells/L",3.42126602922707,"4.5","11"
"01-024","Screening",0,"2015-04-23",1,"Serum","Albumin","g/L",55.229356431938,"35","55"
"01-024","Screening",0,"2015-04-23",1,"Urine","Albumin/Creatinine","mg/g",14.6750043111715,"0","30"
"01-024","Screening",0,"2015-04-23",1,"Serum","Alkaline phosphatase (ALP)","μkat/L",1.92234327647985,"0.5","1.5"
"01-024","Screening",0,"2015-04-23",1,"Serum","Aminotransferase, alanine (ALT)","pkat/L",0.258448663016427,"0","0.58"
"01-024","Screening",0,"2015-04-23",1,"Serum","Aminotransferase, aspartate (AST)","pkat/L",1.00528100684345,"0","0.58"
"01-024","Screening",0,"2015-04-23",1,"Serum","Bicarbonate","mmol/L",23.7189793725665,"23","28"
"01-024","Screening",0,"2015-04-23",1,"Serum","Blood Urea Nitrogen","mmol/L",6.58686968775789,"2.9","7.1"
"01-024","Screening",0,"2015-04-23",1,"Serum","Calcium","mmol/L",2.56471043780617,"2.2","2.6"
"01-024","Screening",0,"2015-04-23",1,"Serum","Chloride","mmol/L",111.175693258309,"98","106"
"01-024","Screening",0,"2015-04-23",1,"Serum","Creatinine","μmol/L",71.185360942791,"61.9","115"
"01-024","Screening",0,"2015-04-23",1,"Serum","Cystatin C","mg/L",0.834335332981739,"0.51","0.98"
"01-024","Screening",0,"2015-04-23",1,"Serum","Direct Bilirubin","μmol/L",0.937064995334502,"0","5.1"
"01-024","Screening",0,"2015-04-23",1,"Serum","eGFR","μmol/L",43.8816480101367,"61.9","115"
"01-024","Screening",0,"2015-04-23",1,"Serum","eGFRcys","μmol/L",68.8441212920489,"61.9","115"
"01-024","Screening",0,"2015-04-23",1,"Serum","IgE","mg/L",0.177776044976977,"0.1","0.4"
"01-024","Screening",0,"2015-04-23",1,"Serum","Magnesium","mmol/L",1.08766782203554,"0.62","0.99"
"01-024","Screening",0,"2015-04-23",1,"Serum","Phosphorus","mmol/L",1.46630732006298,"0.97","1.45"
"01-024","Screening",0,"2015-04-23",1,"Blood","Platelet count","x 109/L",314.699475182094,"150","350"
"01-024","Screening",0,"2015-04-23",1,"Serum","Potassium","mmol/L",4.26427153936852,"3.5","5"
"01-024","Screening",0,"2015-04-23",1,"Blood","RBC count","x 1012 cells/L",2.69398143092624,"4.2","5.9"
"01-024","Screening",0,"2015-04-23",1,"Serum","Sodium","mmol/L",139.624853893178,"136","145"
"01-024","Screening",0,"2015-04-23",1,"Serum","Total Bilirubin","μmol/L",0,"5.1","20.5"
"01-024","Screening",0,"2015-04-23",1,"Blood","WBC count","x 109 cells/L",2.68336038113783,"4.5","11"
"01-024","Visit 1",1,"2015-06-10",49,"Serum","Albumin","g/L",57.6424690731472,"35","55"
"01-024","Visit 1",1,"2015-06-10",49,"Urine","Albumin/Creatinine","mg/g",34.2821952109315,"0","30"
"01-024","Visit 1",1,"2015-06-10",49,"Serum","Alkaline phosphatase (ALP)","μkat/L",0.527054742013723,"0.5","1.5"
"01-024","Visit 1",1,"2015-06-10",49,"Serum","Aminotransferase, alanine (ALT)","pkat/L",0.45540570863027,"0","0.58"
"01-024","Visit 1",1,"2015-06-10",49,"Serum","Aminotransferase, aspartate (AST)","pkat/L",0.0258903257070153,"0","0.58"
"01-024","Visit 1",1,"2015-06-10",49,"Serum","Bicarbonate","mmol/L",26.8713421131685,"23","28"
"01-024","Visit 1",1,"2015-06-10",49,"Serum","Blood Urea Nitrogen","mmol/L",7.27472760106962,"2.9","7.1"
"01-024","Visit 1",1,"2015-06-10",49,"Serum","Calcium","mmol/L",2.44517604935825,"2.2","2.6"
"01-024","Visit 1",1,"2015-06-10",49,"Serum","Chloride","mmol/L",112.207826901593,"98","106"
"01-024","Visit 1",1,"2015-06-10",49,"Serum","Creatinine","μmol/L",111.127057595817,"61.9","115"
"01-024","Visit 1",1,"2015-06-10",49,"Serum","Cystatin C","mg/L",0.910941946342341,"0.51","0.98"
"01-024","Visit 1",1,"2015-06-10",49,"Serum","Direct Bilirubin","μmol/L",0,"0","5.1"
"01-024","Visit 1",1,"2015-06-10",49,"Serum","eGFR","μmol/L",77.436355214884,"61.9","115"
"01-024","Visit 1",1,"2015-06-10",49,"Serum","eGFRcys","μmol/L",91.2780477200562,"61.9","115"
"01-024","Visit 1",1,"2015-06-10",49,"Serum","IgE","mg/L",0.0319215853449477,"0.1","0.4"
"01-024","Visit 1",1,"2015-06-10",49,"Serum","Magnesium","mmol/L",0.644816680947984,"0.62","0.99"
"01-024","Visit 1",1,"2015-06-10",49,"Serum","Phosphorus","mmol/L",1.47180822180427,"0.97","1.45"
"01-024","Visit 1",1,"2015-06-10",49,"Blood","Platelet count","x 109/L",273.522969880295,"150","350"
"01-024","Visit 1",1,"2015-06-10",49,"Serum","Potassium","mmol/L",4.31992719958094,"3.5","5"
"01-024","Visit 1",1,"2015-06-10",49,"Blood","RBC count","x 1012 cells/L",4.72078925251237,"4.2","5.9"
"01-024","Visit 1",1,"2015-06-10",49,"Serum","Sodium","mmol/L",144.477441731609,"136","145"
"01-024","Visit 1",1,"2015-06-10",49,"Serum","Total Bilirubin","μmol/L",2.24538005142977,"5.1","20.5"
"01-024","Visit 1",1,"2015-06-10",49,"Blood","WBC count","x 109 cells/L",7.66247414738788,"4.5","11"
"01-024","Visit 2",2,"2015-08-08",108,"Serum","Albumin","g/L",60.875261215084,"35","55"
"01-024","Visit 2",2,"2015-08-08",108,"Urine","Albumin/Creatinine","mg/g",19.316113938299,"0","30"
"01-024","Visit 2",2,"2015-08-08",108,"Serum","Alkaline phosphatase (ALP)","μkat/L",0.369499739927841,"0.5","1.5"
"01-024","Visit 2",2,"2015-08-08",108,"Serum","Aminotransferase, alanine (ALT)","pkat/L",0.225789735258307,"0","0.58"
"01-024","Visit 2",2,"2015-08-08",108,"Serum","Aminotransferase, aspartate (AST)","pkat/L",0.406635398183259,"0","0.58"
"01-024","Visit 2",2,"2015-08-08",108,"Serum","Bicarbonate","mmol/L",26.1910139283806,"23","28"
"01-024","Visit 2",2,"2015-08-08",108,"Serum","Blood Urea Nitrogen","mmol/L",6.7904748184035,"2.9","7.1"
"01-024","Visit 2",2,"2015-08-08",108,"Serum","Calcium","mmol/L",1.9165752782944,"2.2","2.6"
"01-024","Visit 2",2,"2015-08-08",108,"Serum","Chloride","mmol/L",99.7143618403106,"98","106"
"01-024","Visit 2",2,"2015-08-08",108,"Serum","Creatinine","μmol/L",121.144915757757,"61.9","115"
"01-024","Visit 2",2,"2015-08-08",108,"Serum","Cystatin C","mg/L",0.594171463373045,"0.51","0.98"
"01-024","Visit 2",2,"2015-08-08",108,"Serum","Direct Bilirubin","μmol/L",4.13955636170859,"0","5.1"
"01-024","Visit 2",2,"2015-08-08",108,"Serum","eGFR","μmol/L",50.2540268781472,"61.9","115"
"01-024","Visit 2",2,"2015-08-08",108,"Serum","eGFRcys","μmol/L",53.5472189398443,"61.9","115"
"01-024","Visit 2",2,"2015-08-08",108,"Serum","IgE","mg/L",0.395411661180081,"0.1","0.4"
"01-024","Visit 2",2,"2015-08-08",108,"Serum","Magnesium","mmol/L",0.688315048134415,"0.62","0.99"
"01-024","Visit 2",2,"2015-08-08",108,"Serum","Phosphorus","mmol/L",1.35643154172003,"0.97","1.45"
"01-024","Visit 2",2,"2015-08-08",108,"Blood","Platelet count","x 109/L",262.050146024286,"150","350"
"01-024","Visit 2",2,"2015-08-08",108,"Serum","Potassium","mmol/L",4.23541476804862,"3.5","5"
"01-024","Visit 2",2,"2015-08-08",108,"Blood","RBC count","x 1012 cells/L",5.54598460806243,"4.2","5.9"
"01-024","Visit 2",2,"2015-08-08",108,"Serum","Sodium","mmol/L",142.211875139788,"136","145"
"01-024","Visit 2",2,"2015-08-08",108,"Serum","Total Bilirubin","μmol/L",0,"5.1","20.5"
"01-024","Visit 2",2,"2015-08-08",108,"Blood","WBC count","x 109 cells/L",6.65042411830538,"4.5","11"
"01-024","Visit 3",3,"2015-10-09",170,"Serum","Albumin","g/L",54.9426303879267,"35","55"
"01-024","Visit 3",3,"2015-10-09",170,"Urine","Albumin/Creatinine","mg/g",15.7858247759358,"0","30"
"01-024","Visit 3",3,"2015-10-09",170,"Serum","Alkaline phosphatase (ALP)","μkat/L",0.988031501042767,"0.5","1.5"
"01-024","Visit 3",3,"2015-10-09",170,"Serum","Aminotransferase, alanine (ALT)","pkat/L",0.412969554742169,"0","0.58"
"01-024","Visit 3",3,"2015-10-09",170,"Serum","Aminotransferase, aspartate (AST)","pkat/L",0.0100449634430255,"0","0.58"
"01-024","Visit 3",3,"2015-10-09",170,"Serum","Bicarbonate","mmol/L",23.1056595208905,"23","28"
"01-024","Visit 3",3,"2015-10-09",170,"Serum","Blood Urea Nitrogen","mmol/L",3.57595287870917,"2.9","7.1"
"01-024","Visit 3",3,"2015-10-09",170,"Serum","Calcium","mmol/L",2.11605196445732,"2.2","2.6"
"01-024","Visit 3",3,"2015-10-09",170,"Serum","Chloride","mmol/L",101.794202585704,"98","106"
"01-024","Visit 3",3,"2015-10-09",170,"Serum","Creatinine","μmol/L",81.9073966233092,"61.9","115"
"01-024","Visit 3",3,"2015-10-09",170,"Serum","Cystatin C","mg/L",1.3572967980661,"0.51","0.98"
"01-024","Visit 3",3,"2015-10-09",170,"Serum","Direct Bilirubin","μmol/L",0,"0","5.1"
"01-024","Visit 3",3,"2015-10-09",170,"Serum","eGFR","μmol/L",107.367912089676,"61.9","115"
"01-024","Visit 3",3,"2015-10-09",170,"Serum","eGFRcys","μmol/L",31.4706714759579,"61.9","115"
"01-024","Visit 3",3,"2015-10-09",170,"Serum","IgE","mg/L",0.143586831872953,"0.1","0.4"
"01-024","Visit 3",3,"2015-10-09",170,"Serum","Magnesium","mmol/L",0.740529107473205,"0.62","0.99"
"01-024","Visit 3",3,"2015-10-09",170,"Serum","Phosphorus","mmol/L",0.859483856591594,"0.97","1.45"
"01-024","Visit 3",3,"2015-10-09",170,"Blood","Platelet count","x 109/L",332.905170618558,"150","350"
"01-024","Visit 3",3,"2015-10-09",170,"Serum","Potassium","mmol/L",3.91055899882065,"3.5","5"
"01-024","Visit 3",3,"2015-10-09",170,"Blood","RBC count","x 1012 cells/L",5.54776581298859,"4.2","5.9"
"01-024","Visit 3",3,"2015-10-09",170,"Serum","Sodium","mmol/L",140.149625250665,"136","145"
"01-024","Visit 3",3,"2015-10-09",170,"Serum","Total Bilirubin","μmol/L",24.6018959666072,"5.1","20.5"
"01-024","Visit 3",3,"2015-10-09",170,"Blood","WBC count","x 109 cells/L",8.63627349746575,"4.5","11"
"01-025","Screening",0,"2015-06-22",1,"Serum","Albumin","g/L",53.772376551834,"35","55"
"01-025","Screening",0,"2015-06-22",1,"Urine","Albumin/Creatinine","mg/g",31.1067476466017,"0","30"
"01-025","Screening",0,"2015-06-22",1,"Serum","Alkaline phosphatase (ALP)","μkat/L",1.33292648010284,"0.5","1.5"
"01-025","Screening",0,"2015-06-22",1,"Serum","Aminotransferase, alanine (ALT)","pkat/L",0.734841731424374,"0","0.58"
"01-025","Screening",0,"2015-06-22",1,"Serum","Aminotransferase, aspartate (AST)","pkat/L",0.425827706693146,"0","0.58"
"01-025","Screening",0,"2015-06-22",1,"Serum","Bicarbonate","mmol/L",30.2468523844995,"23","28"
"01-025","Screening",0,"2015-06-22",1,"Serum","Blood Urea Nitrogen","mmol/L",4.90518956962595,"2.9","7.1"
"01-025","Screening",0,"2015-06-22",1,"Serum","Calcium","mmol/L",2.31841545521421,"2.2","2.6"
"01-025","Screening",0,"2015-06-22",1,"Serum","Chloride","mmol/L",109.303964137268,"98","106"
"01-025","Screening",0,"2015-06-22",1,"Serum","Creatinine","μmol/L",126.527270394768,"61.9","115"
"01-025","Screening",0,"2015-06-22",1,"Serum","Cystatin C","mg/L",0.321388189600854,"0.51","0.98"
"01-025","Screening",0,"2015-06-22",1,"Serum","Direct Bilirubin","μmol/L",3.34132533135639,"0","5.1"
"01-025","Screening",0,"2015-06-22",1,"Serum","eGFR","μmol/L",48.6254093041041,"61.9","115"
"01-025","Screening",0,"2015-06-22",1,"Serum","eGFRcys","μmol/L",123.902600594997,"61.9","115"
"01-025","Screening",0,"2015-06-22",1,"Serum","IgE","mg/L",0.179943863109944,"0.1","0.4"
"01-025","Screening",0,"2015-06-22",1,"Serum","Magnesium","mmol/L",0.788412703729413,"0.62","0.99"
"01-025","Screening",0,"2015-06-22",1,"Serum","Phosphorus","mmol/L",1.43558480759797,"0.97","1.45"
"01-025","Screening",0,"2015-06-22",1,"Blood","Platelet count","x 109/L",187.451657124229,"150","350"
"01-025","Screening",0,"2015-06-22",1,"Serum","Potassium","mmol/L",5.35271527014435,"3.5","5"
"01-025","Screening",0,"2015-06-22",1,"Blood","RBC count","x 1012 cells/L",5.12485376108865,"4.2","5.9"
"01-025","Screening",0,"2015-06-22",1,"Serum","Sodium","mmol/L",145.099773730694,"136","145"
"01-025","Screening",0,"2015-06-22",1,"Serum","Total Bilirubin","μmol/L",8.31685969138011,"5.1","20.5"
"01-025","Screening",0,"2015-06-22",1,"Blood","WBC count","x 109 cells/L",7.52424499256429,"4.5","11"
"01-025","Visit 1",1,"2015-08-09",49,"Serum","Albumin","g/L",46.8082137905293,"35","55"
"01-025","Visit 1",1,"2015-08-09",49,"Urine","Albumin/Creatinine","mg/g",19.2140536507988,"0","30"
"01-025","Visit 1",1,"2015-08-09",49,"Serum","Alkaline phosphatase (ALP)","μkat/L",1.28951688580096,"0.5","1.5"
"01-025","Visit 1",1,"2015-08-09",49,"Serum","Aminotransferase, alanine (ALT)","pkat/L",0.829371351348335,"0","0.58"
"01-025","Visit 1",1,"2015-08-09",49,"Serum","Aminotransferase, aspartate (AST)","pkat/L",0.766518286406782,"0","0.58"
"01-025","Visit 1",1,"2015-08-09",49,"Serum","Bicarbonate","mmol/L",23.5927901740172,"23","28"
"01-025","Visit 1",1,"2015-08-09",49,"Serum","Blood Urea Nitrogen","mmol/L",1.67848085465826,"2.9","7.1"
"01-025","Visit 1",1,"2015-08-09",49,"Serum","Calcium","mmol/L",2.27868033319914,"2.2","2.6"
"01-025","Visit 1",1,"2015-08-09",49,"Serum","Chloride","mmol/L",105.282921528583,"98","106"
"01-025","Visit 1",1,"2015-08-09",49,"Serum","Creatinine","μmol/L",101.206831056855,"61.9","115"
"01-025","Visit 1",1,"2015-08-09",49,"Serum","Cystatin C","mg/L",0.530202401266066,"0.51","0.98"
"01-025","Visit 1",1,"2015-08-09",49,"Serum","Direct Bilirubin","μmol/L",5.58544843022594,"0","5.1"
"01-025","Visit 1",1,"2015-08-09",49,"Serum","eGFR","μmol/L",76.565103169198,"61.9","115"
"01-025","Visit 1",1,"2015-08-09",49,"Serum","eGFRcys","μmol/L",41.2528364203799,"61.9","115"
"01-025","Visit 1",1,"2015-08-09",49,"Serum","IgE","mg/L",0.325709714116142,"0.1","0.4"
"01-025","Visit 1",1,"2015-08-09",49,"Serum","Magnesium","mmol/L",0.593433585892601,"0.62","0.99"
"01-025","Visit 1",1,"2015-08-09",49,"Serum","Phosphorus","mmol/L",1.21140935283707,"0.97","1.45"
"01-025","Visit 1",1,"2015-08-09",49,"Blood","Platelet count","x 109/L",423.451708004243,"150","350"
"01-025","Visit 1",1,"2015-08-09",49,"Serum","Potassium","mmol/L",3.68872658197335,"3.5","5"
"01-025","Visit 1",1,"2015-08-09",49,"Blood","RBC count","x 1012 cells/L",4.74220188451883,"4.2","5.9"
"01-025","Visit 1",1,"2015-08-09",49,"Serum","Sodium","mmol/L",142.316193711329,"136","145"
"01-025","Visit 1",1,"2015-08-09",49,"Serum","Total Bilirubin","μmol/L",0,"5.1","20.5"
"01-025","Visit 1",1,"2015-08-09",49,"Blood","WBC count","x 109 cells/L",0.955622474417504,"4.5","11"
"01-026","Screening",0,"2015-02-19",1,"Serum","Albumin","g/L",45.0469120531669,"35","55"
"01-026","Screening",0,"2015-02-19",1,"Urine","Albumin/Creatinine","mg/g",14.6308106290565,"0","30"
"01-026","Screening",0,"2015-02-19",1,"Serum","Alkaline phosphatase (ALP)","μkat/L",1.66728029391819,"0.5","1.5"
"01-026","Screening",0,"2015-02-19",1,"Serum","Aminotransferase, alanine (ALT)","pkat/L",0.717279240312294,"0","0.58"
"01-026","Screening",0,"2015-02-19",1,"Serum","Aminotransferase, aspartate (AST)","pkat/L",0.473016694912532,"0","0.58"
"01-026","Screening",0,"2015-02-19",1,"Serum","Bicarbonate","mmol/L",25.7575092858244,"23","28"
"01-026","Screening",0,"2015-02-19",1,"Serum","Blood Urea Nitrogen","mmol/L",5.69393111566136,"2.9","7.1"
"01-026","Screening",0,"2015-02-19",1,"Serum","Calcium","mmol/L",2.05849904154785,"2.2","2.6"
"01-026","Screening",0,"2015-02-19",1,"Serum","Chloride","mmol/L",101.272747058731,"98","106"
"01-026","Screening",0,"2015-02-19",1,"Serum","Creatinine","μmol/L",50.7462192400441,"61.9","115"
"01-026","Screening",0,"2015-02-19",1,"Serum","Cystatin C","mg/L",0.540283135463756,"0.51","0.98"
"01-026","Screening",0,"2015-02-19",1,"Serum","Direct Bilirubin","μmol/L",4.60775625592581,"0","5.1"
"01-026","Screening",0,"2015-02-19",1,"Serum","eGFR","μmol/L",62.1586661719795,"61.9","115"
"01-026","Screening",0,"2015-02-19",1,"Serum","eGFRcys","μmol/L",60.6028316376924,"61.9","115"
"01-026","Screening",0,"2015-02-19",1,"Serum","IgE","mg/L",0.20927383294902,"0.1","0.4"
"01-026","Screening",0,"2015-02-19",1,"Serum","Magnesium","mmol/L",0.801173452313451,"0.62","0.99"
"01-026","Screening",0,"2015-02-19",1,"Serum","Phosphorus","mmol/L",1.31908259134735,"0.97","1.45"
"01-026","Screening",0,"2015-02-19",1,"Blood","Platelet count","x 109/L",537.925965901222,"150","350"
"01-026","Screening",0,"2015-02-19",1,"Serum","Potassium","mmol/L",4.44974268987819,"3.5","5"
"01-026","Screening",0,"2015-02-19",1,"Blood","RBC count","x 1012 cells/L",5.77029204787337,"4.2","5.9"
"01-026","Screening",0,"2015-02-19",1,"Serum","Sodium","mmol/L",143.605717196708,"136","145"
"01-026","Screening",0,"2015-02-19",1,"Serum","Total Bilirubin","μmol/L",4.06144856395809,"5.1","20.5"
"01-026","Screening",0,"2015-02-19",1,"Blood","WBC count","x 109 cells/L",10.3435601706706,"4.5","11"
"01-026","Visit 1",1,"2015-04-19",60,"Serum","Albumin","g/L",84.9615503743885,"35","55"
"01-026","Visit 1",1,"2015-04-19",60,"Urine","Albumin/Creatinine","mg/g",1.97608206339087,"0","30"
"01-026","Visit 1",1,"2015-04-19",60,"Serum","Alkaline phosphatase (ALP)","μkat/L",0.842549312516259,"0.5","1.5"
"01-026","Visit 1",1,"2015-04-19",60,"Serum","Aminotransferase, alanine (ALT)","pkat/L",0.389954993311746,"0","0.58"
"01-026","Visit 1",1,"2015-04-19",60,"Serum","Aminotransferase, aspartate (AST)","pkat/L",0.100554691533901,"0","0.58"
"01-026","Visit 1",1,"2015-04-19",60,"Serum","Bicarbonate","mmol/L",22.4726441977079,"23","28"
"01-026","Visit 1",1,"2015-04-19",60,"Serum","Blood Urea Nitrogen","mmol/L",8.05038658228381,"2.9","7.1"
"01-026","Visit 1",1,"2015-04-19",60,"Serum","Calcium","mmol/L",2.30352603150873,"2.2","2.6"
"01-026","Visit 1",1,"2015-04-19",60,"Serum","Chloride","mmol/L",107.550989713799,"98","106"
"01-026","Visit 1",1,"2015-04-19",60,"Serum","Creatinine","μmol/L",153.789071693345,"61.9","115"
"01-026","Visit 1",1,"2015-04-19",60,"Serum","Cystatin C","mg/L",0.794021421401229,"0.51","0.98"
"01-026","Visit 1",1,"2015-04-19",60,"Serum","Direct Bilirubin","μmol/L",6.56697023947019,"0","5.1"
"01-026","Visit 1",1,"2015-04-19",60,"Serum","eGFR","μmol/L",67.7680254224703,"61.9","115"
"01-026","Visit 1",1,"2015-04-19",60,"Serum","eGFRcys","μmol/L",123.809612184371,"61.9","115"
"01-026","Visit 1",1,"2015-04-19",60,"Serum","IgE","mg/L",0.261435292596414,"0.1","0.4"
"01-026","Visit 1",1,"2015-04-19",60,"Serum","Magnesium","mmol/L",0.860674399524362,"0.62","0.99"
"01-026","Visit 1",1,"2015-04-19",60,"Serum","Phosphorus","mmol/L",1.14253813503427,"0.97","1.45"
"01-026","Visit 1",1,"2015-04-19",60,"Blood","Platelet count","x 109/L",280.83435365538,"150","350"
"01-026","Visit 1",1,"2015-04-19",60,"Serum","Potassium","mmol/L",4.10547071173219,"3.5","5"
"01-026","Visit 1",1,"2015-04-19",60,"Blood","RBC count","x 1012 cells/L",5.31456121420088,"4.2","5.9"
"01-026","Visit 1",1,"2015-04-19",60,"Serum","Sodium","mmol/L",152.052013303182,"136","145"
"01-026","Visit 1",1,"2015-04-19",60,"Serum","Total Bilirubin","μmol/L",13.51438661273,"5.1","20.5"
"01-026","Visit 1",1,"2015-04-19",60,"Blood","WBC count","x 109 cells/L",8.4459855843742,"4.5","11"
"01-026","Visit 2",2,"2015-06-12",114,"Serum","Albumin","g/L",46.6870870241867,"35","55"
"01-026","Visit 2",2,"2015-06-12",114,"Urine","Albumin/Creatinine","mg/g",5.46709063524299,"0","30"
"01-026","Visit 2",2,"2015-06-12",114,"Serum","Alkaline phosphatase (ALP)","μkat/L",1.12671318939414,"0.5","1.5"
"01-026","Visit 2",2,"2015-06-12",114,"Serum","Aminotransferase, alanine (ALT)","pkat/L",0.514998116875673,"0","0.58"
"01-026","Visit 2",2,"2015-06-12",114,"Serum","Aminotransferase, aspartate (AST)","pkat/L",0.661140513817341,"0","0.58"
"01-026","Visit 2",2,"2015-06-12",114,"Serum","Bicarbonate","mmol/L",29.7543265768309,"23","28"
"01-026","Visit 2",2,"2015-06-12",114,"Serum","Blood Urea Nitrogen","mmol/L",2.30524848142683,"2.9","7.1"
"01-026","Visit 2",2,"2015-06-12",114,"Serum","Calcium","mmol/L",2.24161469410615,"2.2","2.6"
"01-026","Visit 2",2,"2015-06-12",114,"Serum","Chloride","mmol/L",105.565506758702,"98","106"
"01-026","Visit 2",2,"2015-06-12",114,"Serum","Creatinine","μmol/L",80.585500424195,"61.9","115"
"01-026","Visit 2",2,"2015-06-12",114,"Serum","Cystatin C","mg/L",0.279474970145494,"0.51","0.98"
"01-026","Visit 2",2,"2015-06-12",114,"Serum","Direct Bilirubin","μmol/L",0,"0","5.1"
"01-026","Visit 2",2,"2015-06-12",114,"Serum","eGFR","μmol/L",133.589307263882,"61.9","115"
"01-026","Visit 2",2,"2015-06-12",114,"Serum","eGFRcys","μmol/L",101.053497155037,"61.9","115"
"01-026","Visit 2",2,"2015-06-12",114,"Serum","IgE","mg/L",0.186645465840791,"0.1","0.4"
"01-026","Visit 2",2,"2015-06-12",114,"Serum","Magnesium","mmol/L",1.12566249703332,"0.62","0.99"
"01-026","Visit 2",2,"2015-06-12",114,"Serum","Phosphorus","mmol/L",1.13113848413528,"0.97","1.45"
"01-026","Visit 2",2,"2015-06-12",114,"Blood","Platelet count","x 109/L",229.039532496055,"150","350"
"01-026","Visit 2",2,"2015-06-12",114,"Serum","Potassium","mmol/L",4.95427122141264,"3.5","5"
"01-026","Visit 2",2,"2015-06-12",114,"Blood","RBC count","x 1012 cells/L",5.16526660092756,"4.2","5.9"
"01-026","Visit 2",2,"2015-06-12",114,"Serum","Sodium","mmol/L",133.033486070759,"136","145"
"01-026","Visit 2",2,"2015-06-12",114,"Serum","Total Bilirubin","μmol/L",9.98341340696039,"5.1","20.5"
"01-026","Visit 2",2,"2015-06-12",114,"Blood","WBC count","x 109 cells/L",4.95386149690791,"4.5","11"
"01-026","Visit 3",3,"2015-08-02",165,"Serum","Albumin","g/L",44.7011071466654,"35","55"
"01-026","Visit 3",3,"2015-08-02",165,"Urine","Albumin/Creatinine","mg/g",0,"0","30"
"01-026","Visit 3",3,"2015-08-02",165,"Serum","Alkaline phosphatase (ALP)","μkat/L",1.04119084520112,"0.5","1.5"
"01-026","Visit 3",3,"2015-08-02",165,"Serum","Aminotransferase, alanine (ALT)","pkat/L",0.335067892363453,"0","0.58"
"01-026","Visit 3",3,"2015-08-02",165,"Serum","Aminotransferase, aspartate (AST)","pkat/L",0.137647924623182,"0","0.58"
"01-026","Visit 3",3,"2015-08-02",165,"Serum","Bicarbonate","mmol/L",22.9291921820604,"23","28"
"01-026","Visit 3",3,"2015-08-02",165,"Serum","Blood Urea Nitrogen","mmol/L",6.40650681276351,"2.9","7.1"
"01-026","Visit 3",3,"2015-08-02",165,"Serum","Calcium","mmol/L",2.16047416676987,"2.2","2.6"
"01-026","Visit 3",3,"2015-08-02",165,"Serum","Chloride","mmol/L",96.4179666519331,"98","106"
"01-026","Visit 3",3,"2015-08-02",165,"Serum","Creatinine","μmol/L",79.3143116234104,"61.9","115"
"01-026","Visit 3",3,"2015-08-02",165,"Serum","Cystatin C","mg/L",0.618456931758955,"0.51","0.98"
"01-026","Visit 3",3,"2015-08-02",165,"Serum","Direct Bilirubin","μmol/L",3.04715251239217,"0","5.1"
"01-026","Visit 3",3,"2015-08-02",165,"Serum","eGFR","μmol/L",132.662655339182,"61.9","115"
"01-026","Visit 3",3,"2015-08-02",165,"Serum","eGFRcys","μmol/L",114.870125617134,"61.9","115"
"01-026","Visit 3",3,"2015-08-02",165,"Serum","IgE","mg/L",0.285454848685133,"0.1","0.4"
"01-026","Visit 3",3,"2015-08-02",165,"Serum","Magnesium","mmol/L",1.00807115265587,"0.62","0.99"
"01-026","Visit 3",3,"2015-08-02",165,"Serum","Phosphorus","mmol/L",1.30744403370214,"0.97","1.45"
"01-026","Visit 3",3,"2015-08-02",165,"Blood","Platelet count","x 109/L",286.532484106997,"150","350"
"01-026","Visit 3",3,"2015-08-02",165,"Serum","Potassium","mmol/L",5.81744343178077,"3.5","5"
"01-026","Visit 3",3,"2015-08-02",165,"Blood","RBC count","x 1012 cells/L",4.0070652493168,"4.2","5.9"
"01-026","Visit 3",3,"2015-08-02",165,"Serum","Sodium","mmol/L",139.578239236069,"136","145"
"01-026","Visit 3",3,"2015-08-02",165,"Serum","Total Bilirubin","μmol/L",7.08876884495,"5.1","20.5"
"01-026","Visit 3",3,"2015-08-02",165,"Blood","WBC count","x 109 cells/L",11.2118511997575,"4.5","11"
"01-026","Visit 4",4,"2015-10-05",229,"Serum","Albumin","g/L",49.2717826893215,"35","55"
"01-026","Visit 4",4,"2015-10-05",229,"Urine","Albumin/Creatinine","mg/g",0,"0","30"
"01-026","Visit 4",4,"2015-10-05",229,"Serum","Alkaline phosphatase (ALP)","μkat/L",1.02179822594576,"0.5","1.5"
"01-026","Visit 4",4,"2015-10-05",229,"Serum","Aminotransferase, alanine (ALT)","pkat/L",0.722595310641857,"0","0.58"
"01-026","Visit 4",4,"2015-10-05",229,"Serum","Aminotransferase, aspartate (AST)","pkat/L",0.118319180162603,"0","0.58"
"01-026","Visit 4",4,"2015-10-05",229,"Serum","Bicarbonate","mmol/L",24.6284336059142,"23","28"
"01-026","Visit 4",4,"2015-10-05",229,"Serum","Blood Urea Nitrogen","mmol/L",4.71028336982183,"2.9","7.1"
"01-026","Visit 4",4,"2015-10-05",229,"Serum","Calcium","mmol/L",2.57596703898866,"2.2","2.6"
"01-026","Visit 4",4,"2015-10-05",229,"Serum","Chloride","mmol/L",101.850101906005,"98","106"
"01-026","Visit 4",4,"2015-10-05",229,"Serum","Creatinine","μmol/L",141.955253776346,"61.9","115"
"01-026","Visit 4",4,"2015-10-05",229,"Serum","Cystatin C","mg/L",0.674967689249464,"0.51","0.98"
"01-026","Visit 4",4,"2015-10-05",229,"Serum","Direct Bilirubin","μmol/L",4.83960788003039,"0","5.1"
"01-026","Visit 4",4,"2015-10-05",229,"Serum","eGFR","μmol/L",127.715739031626,"61.9","115"
"01-026","Visit 4",4,"2015-10-05",229,"Serum","eGFRcys","μmol/L",84.060170661186,"61.9","115"
"01-026","Visit 4",4,"2015-10-05",229,"Serum","IgE","mg/L",0.0777662133510828,"0.1","0.4"
"01-026","Visit 4",4,"2015-10-05",229,"Serum","Magnesium","mmol/L",0.998559079051508,"0.62","0.99"
"01-026","Visit 4",4,"2015-10-05",229,"Serum","Phosphorus","mmol/L",1.15068298222848,"0.97","1.45"
"01-026","Visit 4",4,"2015-10-05",229,"Blood","Platelet count","x 109/L",208.741142172717,"150","350"
"01-026","Visit 4",4,"2015-10-05",229,"Serum","Potassium","mmol/L",4.82944810870479,"3.5","5"
"01-026","Visit 4",4,"2015-10-05",229,"Blood","RBC count","x 1012 cells/L",5.90260395079692,"4.2","5.9"
"01-026","Visit 4",4,"2015-10-05",229,"Serum","Sodium","mmol/L",139.262218722758,"136","145"
"01-026","Visit 4",4,"2015-10-05",229,"Serum","Total Bilirubin","μmol/L",6.94351686290171,"5.1","20.5"
"01-026","Visit 4",4,"2015-10-05",229,"Blood","WBC count","x 109 cells/L",7.41585303796969,"4.5","11"
"01-026","Unscheduled 4.1",4.1,"2015-10-13",237,"Serum","Albumin","g/L",35.9453151303747,"35","55"
"01-026","Unscheduled 4.1",4.1,"2015-10-13",237,"Urine","Albumin/Creatinine","mg/g",20.7258347541377,"0","30"
"01-026","Unscheduled 4.1",4.1,"2015-10-13",237,"Serum","Alkaline phosphatase (ALP)","μkat/L",0.651964188584071,"0.5","1.5"
"01-026","Unscheduled 4.1",4.1,"2015-10-13",237,"Serum","Aminotransferase, alanine (ALT)","pkat/L",0.478448306575856,"0","0.58"
"01-026","Unscheduled 4.1",4.1,"2015-10-13",237,"Serum","Aminotransferase, aspartate (AST)","pkat/L",0.338707289720344,"0","0.58"
"01-026","Unscheduled 4.1",4.1,"2015-10-13",237,"Serum","Bicarbonate","mmol/L",26.0270366261355,"23","28"
"01-026","Unscheduled 4.1",4.1,"2015-10-13",237,"Serum","Blood Urea Nitrogen","mmol/L",2.09417472604073,"2.9","7.1"
"01-026","Unscheduled 4.1",4.1,"2015-10-13",237,"Serum","Calcium","mmol/L",2.31846571596975,"2.2","2.6"
"01-026","Unscheduled 4.1",4.1,"2015-10-13",237,"Serum","Chloride","mmol/L",105.586125311553,"98","106"
"01-026","Unscheduled 4.1",4.1,"2015-10-13",237,"Serum","Creatinine","μmol/L",88.7486725889372,"61.9","115"
"01-026","Unscheduled 4.1",4.1,"2015-10-13",237,"Serum","Cystatin C","mg/L",0.686562200560721,"0.51","0.98"
"01-026","Unscheduled 4.1",4.1,"2015-10-13",237,"Serum","Direct Bilirubin","μmol/L",1.37464775685941,"0","5.1"
"01-026","Unscheduled 4.1",4.1,"2015-10-13",237,"Serum","eGFR","μmol/L",117.661634552356,"61.9","115"
"01-026","Unscheduled 4.1",4.1,"2015-10-13",237,"Serum","eGFRcys","μmol/L",113.665301020563,"61.9","115"
"01-026","Unscheduled 4.1",4.1,"2015-10-13",237,"Serum","IgE","mg/L",0.139277743763842,"0.1","0.4"
"01-026","Unscheduled 4.1",4.1,"2015-10-13",237,"Serum","Magnesium","mmol/L",0.969983642705674,"0.62","0.99"
"01-026","Unscheduled 4.1",4.1,"2015-10-13",237,"Serum","Phosphorus","mmol/L",0.987141329874895,"0.97","1.45"
"01-026","Unscheduled 4.1",4.1,"2015-10-13",237,"Blood","Platelet count","x 109/L",344.336358031581,"150","350"
"01-026","Unscheduled 4.1",4.1,"2015-10-13",237,"Serum","Potassium","mmol/L",4.51318495368039,"3.5","5"
"01-026","Unscheduled 4.1",4.1,"2015-10-13",237,"Blood","RBC count","x 1012 cells/L",4.54804146835268,"4.2","5.9"
"01-026","Unscheduled 4.1",4.1,"2015-10-13",237,"Serum","Sodium","mmol/L",148.87515483247,"136","145"
"01-026","Unscheduled 4.1",4.1,"2015-10-13",237,"Serum","Total Bilirubin","μmol/L",15.7042740112965,"5.1","20.5"
"01-026","Unscheduled 4.1",4.1,"2015-10-13",237,"Blood","WBC count","x 109 cells/L",10.9447169460317,"4.5","11"
"01-026","Visit 5",5,"2015-11-19",274,"Serum","Albumin","g/L",34.0912018731756,"35","55"
"01-026","Visit 5",5,"2015-11-19",274,"Urine","Albumin/Creatinine","mg/g",1.32343206672124,"0","30"
"01-026","Visit 5",5,"2015-11-19",274,"Serum","Alkaline phosphatase (ALP)","μkat/L",0,"0.5","1.5"
"01-026","Visit 5",5,"2015-11-19",274,"Serum","Aminotransferase, alanine (ALT)","pkat/L",0.0995966083235598,"0","0.58"
"01-026","Visit 5",5,"2015-11-19",274,"Serum","Aminotransferase, aspartate (AST)","pkat/L",0.010628864194663,"0","0.58"
"01-026","Visit 5",5,"2015-11-19",274,"Serum","Bicarbonate","mmol/L",25.467665346835,"23","28"
"01-026","Visit 5",5,"2015-11-19",274,"Serum","Blood Urea Nitrogen","mmol/L",5.61425983755242,"2.9","7.1"
"01-026","Visit 5",5,"2015-11-19",274,"Serum","Calcium","mmol/L",2.15460269853873,"2.2","2.6"
"01-026","Visit 5",5,"2015-11-19",274,"Serum","Chloride","mmol/L",98.6107648877106,"98","106"
"01-026","Visit 5",5,"2015-11-19",274,"Serum","Creatinine","μmol/L",65.1462476321003,"61.9","115"
"01-026","Visit 5",5,"2015-11-19",274,"Serum","Cystatin C","mg/L",0.804908472895382,"0.51","0.98"
"01-026","Visit 5",5,"2015-11-19",274,"Serum","Direct Bilirubin","μmol/L",1.05197452180874,"0","5.1"
"01-026","Visit 5",5,"2015-11-19",274,"Serum","eGFR","μmol/L",114.377119621983,"61.9","115"
"01-026","Visit 5",5,"2015-11-19",274,"Serum","eGFRcys","μmol/L",96.096906210858,"61.9","115"
"01-026","Visit 5",5,"2015-11-19",274,"Serum","IgE","mg/L",0.272641416407898,"0.1","0.4"
"01-026","Visit 5",5,"2015-11-19",274,"Serum","Magnesium","mmol/L",0.638432386545604,"0.62","0.99"
"01-026","Visit 5",5,"2015-11-19",274,"Serum","Phosphorus","mmol/L",1.59979504680267,"0.97","1.45"
"01-026","Visit 5",5,"2015-11-19",274,"Blood","Platelet count","x 109/L",151.152974549892,"150","350"
"01-026","Visit 5",5,"2015-11-19",274,"Serum","Potassium","mmol/L",3.45154996558296,"3.5","5"
"01-026","Visit 5",5,"2015-11-19",274,"Blood","RBC count","x 1012 cells/L",4.8884154919281,"4.2","5.9"
"01-026","Visit 5",5,"2015-11-19",274,"Serum","Sodium","mmol/L",137.017694533631,"136","145"
"01-026","Visit 5",5,"2015-11-19",274,"Serum","Total Bilirubin","μmol/L",21.9702624411577,"5.1","20.5"
"01-026","Visit 5",5,"2015-11-19",274,"Blood","WBC count","x 109 cells/L",12.720194367742,"4.5","11"
"01-026","Visit 6",6,"2016-01-16",332,"Serum","Albumin","g/L",36.258498440204,"35","55"
"01-026","Visit 6",6,"2016-01-16",332,"Urine","Albumin/Creatinine","mg/g",10.0696854040165,"0","30"
"01-026","Visit 6",6,"2016-01-16",332,"Serum","Alkaline phosphatase (ALP)","μkat/L",1.32785954249615,"0.5","1.5"
"01-026","Visit 6",6,"2016-01-16",332,"Serum","Aminotransferase, alanine (ALT)","pkat/L",0.680938954406058,"0","0.58"
"01-026","Visit 6",6,"2016-01-16",332,"Serum","Aminotransferase, aspartate (AST)","pkat/L",0.769457639615051,"0","0.58"
"01-026","Visit 6",6,"2016-01-16",332,"Serum","Bicarbonate","mmol/L",21.3848639807031,"23","28"
"01-026","Visit 6",6,"2016-01-16",332,"Serum","Blood Urea Nitrogen","mmol/L",4.73813941976426,"2.9","7.1"
"01-026","Visit 6",6,"2016-01-16",332,"Serum","Calcium","mmol/L",2.24509351147354,"2.2","2.6"
"01-026","Visit 6",6,"2016-01-16",332,"Serum","Chloride","mmol/L",97.8706344790065,"98","106"
"01-026","Visit 6",6,"2016-01-16",332,"Serum","Creatinine","μmol/L",59.0235417177801,"61.9","115"
"01-026","Visit 6",6,"2016-01-16",332,"Serum","Cystatin C","mg/L",0.983919577284878,"0.51","0.98"
"01-026","Visit 6",6,"2016-01-16",332,"Serum","Direct Bilirubin","μmol/L",2.63835296291319,"0","5.1"
"01-026","Visit 6",6,"2016-01-16",332,"Serum","eGFR","μmol/L",113.967144197246,"61.9","115"
"01-026","Visit 6",6,"2016-01-16",332,"Serum","eGFRcys","μmol/L",65.4222928417568,"61.9","115"
"01-026","Visit 6",6,"2016-01-16",332,"Serum","IgE","mg/L",0.301771573600588,"0.1","0.4"
"01-026","Visit 6",6,"2016-01-16",332,"Serum","Magnesium","mmol/L",0.765507184765527,"0.62","0.99"
"01-026","Visit 6",6,"2016-01-16",332,"Serum","Phosphorus","mmol/L",0.871799918110417,"0.97","1.45"
"01-026","Visit 6",6,"2016-01-16",332,"Blood","Platelet count","x 109/L",150.190567823799,"150","350"
"01-026","Visit 6",6,"2016-01-16",332,"Serum","Potassium","mmol/L",4.89212073855272,"3.5","5"
"01-026","Visit 6",6,"2016-01-16",332,"Blood","RBC count","x 1012 cells/L",4.89452104151533,"4.2","5.9"
"01-026","Visit 6",6,"2016-01-16",332,"Serum","Sodium","mmol/L",137.586443322663,"136","145"
"01-026","Visit 6",6,"2016-01-16",332,"Serum","Total Bilirubin","μmol/L",20.5604600942344,"5.1","20.5"
"01-026","Visit 6",6,"2016-01-16",332,"Blood","WBC count","x 109 cells/L",10.6154318746959,"4.5","11"
"01-026","End of Study",7,"2016-02-19",366,"Serum","Albumin","g/L",33.3994853047688,"35","55"
"01-026","End of Study",7,"2016-02-19",366,"Urine","Albumin/Creatinine","mg/g",26.5216167802345,"0","30"
"01-026","End of Study",7,"2016-02-19",366,"Serum","Alkaline phosphatase (ALP)","μkat/L",1.76651500370114,"0.5","1.5"
"01-026","End of Study",7,"2016-02-19",366,"Serum","Aminotransferase, alanine (ALT)","pkat/L",0.83316103139571,"0","0.58"
"01-026","End of Study",7,"2016-02-19",366,"Serum","Aminotransferase, aspartate (AST)","pkat/L",0,"0","0.58"
"01-026","End of Study",7,"2016-02-19",366,"Serum","Bicarbonate","mmol/L",25.0142747326193,"23","28"
"01-026","End of Study",7,"2016-02-19",366,"Serum","Blood Urea Nitrogen","mmol/L",1.86773949030082,"2.9","7.1"
"01-026","End of Study",7,"2016-02-19",366,"Serum","Calcium","mmol/L",2.29070665981745,"2.2","2.6"
"01-026","End of Study",7,"2016-02-19",366,"Serum","Chloride","mmol/L",96.2196344458659,"98","106"
"01-026","End of Study",7,"2016-02-19",366,"Serum","Creatinine","μmol/L",74.8346720771301,"61.9","115"
"01-026","End of Study",7,"2016-02-19",366,"Serum","Cystatin C","mg/L",1.15986734323892,"0.51","0.98"
"01-026","End of Study",7,"2016-02-19",366,"Serum","Direct Bilirubin","μmol/L",0,"0","5.1"
"01-026","End of Study",7,"2016-02-19",366,"Serum","eGFR","μmol/L",116.462130017022,"61.9","115"
"01-026","End of Study",7,"2016-02-19",366,"Serum","eGFRcys","μmol/L",102.948200086162,"61.9","115"
"01-026","End of Study",7,"2016-02-19",366,"Serum","IgE","mg/L",0.187639470732668,"0.1","0.4"
"01-026","End of Study",7,"2016-02-19",366,"Serum","Magnesium","mmol/L",0.63027898231889,"0.62","0.99"
"01-026","End of Study",7,"2016-02-19",366,"Serum","Phosphorus","mmol/L",0.8633006287627,"0.97","1.45"
"01-026","End of Study",7,"2016-02-19",366,"Blood","Platelet count","x 109/L",149.26531466678,"150","350"
"01-026","End of Study",7,"2016-02-19",366,"Serum","Potassium","mmol/L",3.6926096442495,"3.5","5"
"01-026","End of Study",7,"2016-02-19",366,"Blood","RBC count","x 1012 cells/L",5.90411643880962,"4.2","5.9"
"01-026","End of Study",7,"2016-02-19",366,"Serum","Sodium","mmol/L",135.601875337698,"136","145"
"01-026","End of Study",7,"2016-02-19",366,"Serum","Total Bilirubin","μmol/L",20.6025213591944,"5.1","20.5"
"01-026","End of Study",7,"2016-02-19",366,"Blood","WBC count","x 109 cells/L",10.9015405385648,"4.5","11"
"01-027","Screening",0,"2015-06-01",1,"Serum","Albumin","g/L",29.8472134620389,"35","55"
"01-027","Screening",0,"2015-06-01",1,"Urine","Albumin/Creatinine","mg/g",7.58151987837342,"0","30"
"01-027","Screening",0,"2015-06-01",1,"Serum","Alkaline phosphatase (ALP)","μkat/L",0.446951888543352,"0.5","1.5"
"01-027","Screening",0,"2015-06-01",1,"Serum","Aminotransferase, alanine (ALT)","pkat/L",0.654000396297886,"0","0.58"
"01-027","Screening",0,"2015-06-01",1,"Serum","Aminotransferase, aspartate (AST)","pkat/L",0.403909890704481,"0","0.58"
"01-027","Screening",0,"2015-06-01",1,"Serum","Bicarbonate","mmol/L",22.734703040421,"23","28"
"01-027","Screening",0,"2015-06-01",1,"Serum","Blood Urea Nitrogen","mmol/L",3.55051927981312,"2.9","7.1"
"01-027","Screening",0,"2015-06-01",1,"Serum","Calcium","mmol/L",2.4599839595994,"2.2","2.6"
"01-027","Screening",0,"2015-06-01",1,"Serum","Chloride","mmol/L",111.197229995394,"98","106"
"01-027","Screening",0,"2015-06-01",1,"Serum","Creatinine","μmol/L",98.688877209212,"61.9","115"
"01-027","Screening",0,"2015-06-01",1,"Serum","Cystatin C","mg/L",0.861923134005394,"0.51","0.98"
"01-027","Screening",0,"2015-06-01",1,"Serum","Direct Bilirubin","μmol/L",6.29105876032922,"0","5.1"
"01-027","Screening",0,"2015-06-01",1,"Serum","eGFR","μmol/L",16.9778737255423,"61.9","115"
"01-027","Screening",0,"2015-06-01",1,"Serum","eGFRcys","μmol/L",66.9558281427907,"61.9","115"
"01-027","Screening",0,"2015-06-01",1,"Serum","IgE","mg/L",0.315060366883545,"0.1","0.4"
"01-027","Screening",0,"2015-06-01",1,"Serum","Magnesium","mmol/L",0.853344732729239,"0.62","0.99"
"01-027","Screening",0,"2015-06-01",1,"Serum","Phosphorus","mmol/L",0.678437082812319,"0.97","1.45"
"01-027","Screening",0,"2015-06-01",1,"Blood","Platelet count","x 109/L",333.355442551764,"150","350"
"01-027","Screening",0,"2015-06-01",1,"Serum","Potassium","mmol/L",3.69077645774628,"3.5","5"
"01-027","Screening",0,"2015-06-01",1,"Blood","RBC count","x 1012 cells/L",4.45453321632981,"4.2","5.9"
"01-027","Screening",0,"2015-06-01",1,"Serum","Sodium","mmol/L",146.434643865484,"136","145"
"01-027","Screening",0,"2015-06-01",1,"Serum","Total Bilirubin","μmol/L",0,"5.1","20.5"
"01-027","Screening",0,"2015-06-01",1,"Blood","WBC count","x 109 cells/L",0.705980739360763,"4.5","11"
"01-027","Visit 1",1,"2015-07-24",54,"Serum","Albumin","g/L",55.0007616505052,"35","55"
"01-027","Visit 1",1,"2015-07-24",54,"Urine","Albumin/Creatinine","mg/g",26.3300011405667,"0","30"
"01-027","Visit 1",1,"2015-07-24",54,"Serum","Alkaline phosphatase (ALP)","μkat/L",1.30675440081563,"0.5","1.5"
"01-027","Visit 1",1,"2015-07-24",54,"Serum","Aminotransferase, alanine (ALT)","pkat/L",0.450257647000995,"0","0.58"
"01-027","Visit 1",1,"2015-07-24",54,"Serum","Aminotransferase, aspartate (AST)","pkat/L",0.729161053108982,"0","0.58"
"01-027","Visit 1",1,"2015-07-24",54,"Serum","Bicarbonate","mmol/L",25.1729234137023,"23","28"
"01-027","Visit 1",1,"2015-07-24",54,"Serum","Blood Urea Nitrogen","mmol/L",6.03053050037037,"2.9","7.1"
"01-027","Visit 1",1,"2015-07-24",54,"Serum","Calcium","mmol/L",2.42468502314392,"2.2","2.6"
"01-027","Visit 1",1,"2015-07-24",54,"Serum","Chloride","mmol/L",105.092894771086,"98","106"
"01-027","Visit 1",1,"2015-07-24",54,"Serum","Creatinine","μmol/L",59.1005727230312,"61.9","115"
"01-027","Visit 1",1,"2015-07-24",54,"Serum","Cystatin C","mg/L",0.465493084086933,"0.51","0.98"
"01-027","Visit 1",1,"2015-07-24",54,"Serum","Direct Bilirubin","μmol/L",3.63672336183265,"0","5.1"
"01-027","Visit 1",1,"2015-07-24",54,"Serum","eGFR","μmol/L",107.592717172402,"61.9","115"
"01-027","Visit 1",1,"2015-07-24",54,"Serum","eGFRcys","μmol/L",92.5906796846828,"61.9","115"
"01-027","Visit 1",1,"2015-07-24",54,"Serum","IgE","mg/L",0.17207399000262,"0.1","0.4"
"01-027","Visit 1",1,"2015-07-24",54,"Serum","Magnesium","mmol/L",1.00580959163703,"0.62","0.99"
"01-027","Visit 1",1,"2015-07-24",54,"Serum","Phosphorus","mmol/L",0.782066772571488,"0.97","1.45"
"01-027","Visit 1",1,"2015-07-24",54,"Blood","Platelet count","x 109/L",307.450057913745,"150","350"
"01-027","Visit 1",1,"2015-07-24",54,"Serum","Potassium","mmol/L",2.64849825492345,"3.5","5"
"01-027","Visit 1",1,"2015-07-24",54,"Blood","RBC count","x 1012 cells/L",5.52300111166747,"4.2","5.9"
"01-027","Visit 1",1,"2015-07-24",54,"Serum","Sodium","mmol/L",144.821392386072,"136","145"
"01-027","Visit 1",1,"2015-07-24",54,"Serum","Total Bilirubin","μmol/L",0,"5.1","20.5"
"01-027","Visit 1",1,"2015-07-24",54,"Blood","WBC count","x 109 cells/L",9.07241905514137,"4.5","11"
"01-028","Screening",0,"2015-11-12",1,"Serum","Albumin","g/L",41.471061322693,"35","55"
"01-028","Screening",0,"2015-11-12",1,"Urine","Albumin/Creatinine","mg/g",0,"0","30"
"01-028","Screening",0,"2015-11-12",1,"Serum","Alkaline phosphatase (ALP)","μkat/L",1.16255260367475,"0.5","1.5"
"01-028","Screening",0,"2015-11-12",1,"Serum","Aminotransferase, alanine (ALT)","pkat/L",0.601878588674743,"0","0.58"
"01-028","Screening",0,"2015-11-12",1,"Serum","Aminotransferase, aspartate (AST)","pkat/L",0.417184356187515,"0","0.58"
"01-028","Screening",0,"2015-11-12",1,"Serum","Bicarbonate","mmol/L",23.3274677217519,"23","28"
"01-028","Screening",0,"2015-11-12",1,"Serum","Blood Urea Nitrogen","mmol/L",5.41595295334285,"2.9","7.1"
"01-028","Screening",0,"2015-11-12",1,"Serum","Calcium","mmol/L",2.41895216050324,"2.2","2.6"
"01-028","Screening",0,"2015-11-12",1,"Serum","Chloride","mmol/L",110.424877923395,"98","106"
"01-028","Screening",0,"2015-11-12",1,"Serum","Creatinine","μmol/L",88.9295597209198,"61.9","115"
"01-028","Screening",0,"2015-11-12",1,"Serum","Cystatin C","mg/L",0.543795368865599,"0.51","0.98"
"01-028","Screening",0,"2015-11-12",1,"Serum","Direct Bilirubin","μmol/L",4.13324920995992,"0","5.1"
"01-028","Screening",0,"2015-11-12",1,"Serum","eGFR","μmol/L",100.550882155053,"61.9","115"
"01-028","Screening",0,"2015-11-12",1,"Serum","eGFRcys","μmol/L",90.5842323053334,"61.9","115"
"01-028","Screening",0,"2015-11-12",1,"Serum","IgE","mg/L",0.235498907612636,"0.1","0.4"
"01-028","Screening",0,"2015-11-12",1,"Serum","Magnesium","mmol/L",0.896067162726228,"0.62","0.99"
"01-028","Screening",0,"2015-11-12",1,"Serum","Phosphorus","mmol/L",0.93441345795426,"0.97","1.45"
"01-028","Screening",0,"2015-11-12",1,"Blood","Platelet count","x 109/L",339.503881462602,"150","350"
"01-028","Screening",0,"2015-11-12",1,"Serum","Potassium","mmol/L",4.6488708151162,"3.5","5"
"01-028","Screening",0,"2015-11-12",1,"Blood","RBC count","x 1012 cells/L",3.9169749578542,"4.2","5.9"
"01-028","Screening",0,"2015-11-12",1,"Serum","Sodium","mmol/L",141.96590096532,"136","145"
"01-028","Screening",0,"2015-11-12",1,"Serum","Total Bilirubin","μmol/L",13.8501415505706,"5.1","20.5"
"01-028","Screening",0,"2015-11-12",1,"Blood","WBC count","x 109 cells/L",12.078234177555,"4.5","11"
"01-028","Visit 1",1,"2016-01-11",61,"Serum","Albumin","g/L",58.0149772594057,"35","55"
"01-028","Visit 1",1,"2016-01-11",61,"Urine","Albumin/Creatinine","mg/g",39.6223299878063,"0","30"
"01-028","Visit 1",1,"2016-01-11",61,"Serum","Alkaline phosphatase (ALP)","μkat/L",1.47532929469035,"0.5","1.5"
"01-028","Visit 1",1,"2016-01-11",61,"Serum","Aminotransferase, alanine (ALT)","pkat/L",0.586136734213439,"0","0.58"
"01-028","Visit 1",1,"2016-01-11",61,"Serum","Aminotransferase, aspartate (AST)","pkat/L",0.546185070467938,"0","0.58"
"01-028","Visit 1",1,"2016-01-11",61,"Serum","Bicarbonate","mmol/L",20.8189509712023,"23","28"
"01-028","Visit 1",1,"2016-01-11",61,"Serum","Blood Urea Nitrogen","mmol/L",6.30472777771692,"2.9","7.1"
"01-028","Visit 1",1,"2016-01-11",61,"Serum","Calcium","mmol/L",2.47792881795382,"2.2","2.6"
"01-028","Visit 1",1,"2016-01-11",61,"Serum","Chloride","mmol/L",105.777355735804,"98","106"
"01-028","Visit 1",1,"2016-01-11",61,"Serum","Creatinine","μmol/L",59.521338579025,"61.9","115"
"01-028","Visit 1",1,"2016-01-11",61,"Serum","Cystatin C","mg/L",0.995964746368407,"0.51","0.98"
"01-028","Visit 1",1,"2016-01-11",61,"Serum","Direct Bilirubin","μmol/L",4.93690903956707,"0","5.1"
"01-028","Visit 1",1,"2016-01-11",61,"Serum","eGFR","μmol/L",67.5828382716397,"61.9","115"
"01-028","Visit 1",1,"2016-01-11",61,"Serum","eGFRcys","μmol/L",94.4718795941481,"61.9","115"
"01-028","Visit 1",1,"2016-01-11",61,"Serum","IgE","mg/L",0.233830119505353,"0.1","0.4"
"01-028","Visit 1",1,"2016-01-11",61,"Serum","Magnesium","mmol/L",0.751074702264821,"0.62","0.99"
"01-028","Visit 1",1,"2016-01-11",61,"Serum","Phosphorus","mmol/L",0.853947375074746,"0.97","1.45"
"01-028","Visit 1",1,"2016-01-11",61,"Blood","Platelet count","x 109/L",299.54121960733,"150","350"
"01-028","Visit 1",1,"2016-01-11",61,"Serum","Potassium","mmol/L",3.5968813020235,"3.5","5"
"01-028","Visit 1",1,"2016-01-11",61,"Blood","RBC count","x 1012 cells/L",4.43077678861428,"4.2","5.9"
"01-028","Visit 1",1,"2016-01-11",61,"Serum","Sodium","mmol/L",138.599071070481,"136","145"
"01-028","Visit 1",1,"2016-01-11",61,"Serum","Total Bilirubin","μmol/L",1.85831512392457,"5.1","20.5"
"01-028","Visit 1",1,"2016-01-11",61,"Blood","WBC count","x 109 cells/L",1.92488093087104,"4.5","11"
"01-028","Unscheduled 1.1",1.1,"2016-01-19",69,"Serum","Albumin","g/L",71.0641542025689,"35","55"
"01-028","Unscheduled 1.1",1.1,"2016-01-19",69,"Urine","Albumin/Creatinine","mg/g",55.3421780853934,"0","30"
"01-028","Unscheduled 1.1",1.1,"2016-01-19",69,"Serum","Alkaline phosphatase (ALP)","μkat/L",0.384555586132891,"0.5","1.5"
"01-028","Unscheduled 1.1",1.1,"2016-01-19",69,"Serum","Aminotransferase, alanine (ALT)","pkat/L",0.877263795211208,"0","0.58"
"01-028","Unscheduled 1.1",1.1,"2016-01-19",69,"Serum","Aminotransferase, aspartate (AST)","pkat/L",0.70170242521932,"0","0.58"
"01-028","Unscheduled 1.1",1.1,"2016-01-19",69,"Serum","Bicarbonate","mmol/L",22.4116060468692,"23","28"
"01-028","Unscheduled 1.1",1.1,"2016-01-19",69,"Serum","Blood Urea Nitrogen","mmol/L",5.71938125678204,"2.9","7.1"
"01-028","Unscheduled 1.1",1.1,"2016-01-19",69,"Serum","Calcium","mmol/L",2.17115043278566,"2.2","2.6"
"01-028","Unscheduled 1.1",1.1,"2016-01-19",69,"Serum","Chloride","mmol/L",104.759177449933,"98","106"
"01-028","Unscheduled 1.1",1.1,"2016-01-19",69,"Serum","Creatinine","μmol/L",74.2390478742524,"61.9","115"
"01-028","Unscheduled 1.1",1.1,"2016-01-19",69,"Serum","Cystatin C","mg/L",0.688348849764377,"0.51","0.98"
"01-028","Unscheduled 1.1",1.1,"2016-01-19",69,"Serum","Direct Bilirubin","μmol/L",5.74643709873189,"0","5.1"
"01-028","Unscheduled 1.1",1.1,"2016-01-19",69,"Serum","eGFR","μmol/L",59.3377504355313,"61.9","115"
"01-028","Unscheduled 1.1",1.1,"2016-01-19",69,"Serum","eGFRcys","μmol/L",62.1397437911761,"61.9","115"
"01-028","Unscheduled 1.1",1.1,"2016-01-19",69,"Serum","IgE","mg/L",0.27461392956681,"0.1","0.4"
"01-028","Unscheduled 1.1",1.1,"2016-01-19",69,"Serum","Magnesium","mmol/L",0.852305076308991,"0.62","0.99"
"01-028","Unscheduled 1.1",1.1,"2016-01-19",69,"Serum","Phosphorus","mmol/L",1.19404151619021,"0.97","1.45"
"01-028","Unscheduled 1.1",1.1,"2016-01-19",69,"Blood","Platelet count","x 109/L",357.891298349168,"150","350"
"01-028","Unscheduled 1.1",1.1,"2016-01-19",69,"Serum","Potassium","mmol/L",3.91314032940414,"3.5","5"
"01-028","Unscheduled 1.1",1.1,"2016-01-19",69,"Blood","RBC count","x 1012 cells/L",3.62735609710398,"4.2","5.9"
"01-028","Unscheduled 1.1",1.1,"2016-01-19",69,"Serum","Sodium","mmol/L",144.482262918842,"136","145"
"01-028","Unscheduled 1.1",1.1,"2016-01-19",69,"Serum","Total Bilirubin","μmol/L",0,"5.1","20.5"
"01-028","Unscheduled 1.1",1.1,"2016-01-19",69,"Blood","WBC count","x 109 cells/L",11.8262158438385,"4.5","11"
"01-028","Visit 2",2,"2016-02-29",110,"Serum","Albumin","g/L",54.9749786214464,"35","55"
"01-028","Visit 2",2,"2016-02-29",110,"Urine","Albumin/Creatinine","mg/g",14.6824794067891,"0","30"
"01-028","Visit 2",2,"2016-02-29",110,"Serum","Alkaline phosphatase (ALP)","μkat/L",0,"0.5","1.5"
"01-028","Visit 2",2,"2016-02-29",110,"Serum","Aminotransferase, alanine (ALT)","pkat/L",0.992605388557698,"0","0.58"
"01-028","Visit 2",2,"2016-02-29",110,"Serum","Aminotransferase, aspartate (AST)","pkat/L",0.896200956322865,"0","0.58"
"01-028","Visit 2",2,"2016-02-29",110,"Serum","Bicarbonate","mmol/L",29.5708313256855,"23","28"
"01-028","Visit 2",2,"2016-02-29",110,"Serum","Blood Urea Nitrogen","mmol/L",3.93107024437757,"2.9","7.1"
"01-028","Visit 2",2,"2016-02-29",110,"Serum","Calcium","mmol/L",2.29229747200462,"2.2","2.6"
"01-028","Visit 2",2,"2016-02-29",110,"Serum","Chloride","mmol/L",105.891677383648,"98","106"
"01-028","Visit 2",2,"2016-02-29",110,"Serum","Creatinine","μmol/L",72.6005635888347,"61.9","115"
"01-028","Visit 2",2,"2016-02-29",110,"Serum","Cystatin C","mg/L",0.883156219247743,"0.51","0.98"
"01-028","Visit 2",2,"2016-02-29",110,"Serum","Direct Bilirubin","μmol/L",2.2418466797114,"0","5.1"
"01-028","Visit 2",2,"2016-02-29",110,"Serum","eGFR","μmol/L",85.9560697542138,"61.9","115"
"01-028","Visit 2",2,"2016-02-29",110,"Serum","eGFRcys","μmol/L",138.236626905156,"61.9","115"
"01-028","Visit 2",2,"2016-02-29",110,"Serum","IgE","mg/L",0.628441617533759,"0.1","0.4"
"01-028","Visit 2",2,"2016-02-29",110,"Serum","Magnesium","mmol/L",0.955970021148716,"0.62","0.99"
"01-028","Visit 2",2,"2016-02-29",110,"Serum","Phosphorus","mmol/L",1.27916776916305,"0.97","1.45"
"01-028","Visit 2",2,"2016-02-29",110,"Blood","Platelet count","x 109/L",450.713670420532,"150","350"
"01-028","Visit 2",2,"2016-02-29",110,"Serum","Potassium","mmol/L",4.54328070465808,"3.5","5"
