[
    {
        "relPath": "./data/clinical-trials/adam/adae.csv",
        "path": "adae.csv",
        "name": "adae",
        "nRows": 393,
        "cols": [
            "USUBJID",
            "SITE",
            "SITEID",
            "AGE",
            "SEX",
            "RACE",
            "ARM",
            "ARMCD",
            "SBJTSTAT",
            "RFSTDTC",
            "RFENDTC",
            "RFENDY",
            "SAFFL",
            "SAFFN",
            "ASEQ",
            "ASTDT",
            "ASTDY",
            "AENDT",
            "AENDY",
            "AETERM",
            "AEDECOD",
            "AEBODSYS",
            "AESER",
            "AEONGO",
            "AESEV",
            "AEREL",
            "AEOUT",
            "AESEQ"
        ],
        "nCols": 28
    },
    {
        "relPath": "./data/clinical-trials/adam/adcm.csv",
        "path": "adcm.csv",
        "name": "adcm",
        "nRows": 353,
        "cols": [
            "USUBJID",
            "SITE",
            "SITEID",
            "AGE",
            "SEX",
            "RACE",
            "ARM",
            "ARMCD",
            "SBJTSTAT",
            "RFSTDTC",
            "RFENDTC",
            "RFENDY",
            "SAFFL",
            "SAFFN",
            "ASEQ",
            "ASTDT",
            "ASTDY",
            "AENDT",
            "AENDY",
            "CMTRT",
            "PREFTERM",
            "ATCTEXT2",
            "CMONGO",
            "CMDOSE",
            "CMROUTE",
            "CMINDC",
            "CMSEQ"
        ],
        "nCols": 27
    },
    {
        "relPath": "./data/clinical-trials/adam/adlb-trend.csv",
        "path": "adlb-trend.csv",
        "name": "adlb-trend",
        "nRows": 13708,
        "cols": [
            "USUBJID",
            "SITE",
            "SITEID",
            "AGE",
            "SEX",
            "RACE",
            "ARM",
            "ARMCD",
            "SBJTSTAT",
            "RFSTDTC",
            "RFENDTC",
            "RFENDY",
            "SAFFL",
            "SAFFN",
            "RANDDT",
            "RANDDY",
            "COMPLDT",
            "COMPLDY",
            "ANYAEFL",
            "ANYCMFL",
            "AVISIT",
            "AVISITN",
            "ADT",
            "ADY",
            "PARAMCAT",
            "PARAM",
            "AVAL",
            "ANRLO",
            "ANRHI",
            "ABLFL",
            "BASE",
            "CHG",
            "PCHG"
        ],
        "nCols": 33
    },
    {
        "relPath": "./data/clinical-trials/adam/adlb.csv",
        "path": "adlb.csv",
        "name": "adlb",
        "nRows": 13708,
        "cols": [
            "USUBJID",
            "SITE",
            "SITEID",
            "AGE",
            "SEX",
            "RACE",
            "ARM",
            "ARMCD",
            "SBJTSTAT",
            "RFSTDTC",
            "RFENDTC",
            "RFENDY",
            "SAFFL",
            "SAFFN",
            "RANDDT",
            "RANDDY",
            "COMPLDT",
            "COMPLDY",
            "ANYAEFL",
            "ANYCMFL",
            "AVISIT",
            "AVISITN",
            "ADT",
            "ADY",
            "PARAMCAT",
            "PARAM",
            "AVAL",
            "ANRLO",
            "ANRHI"
        ],
        "nCols": 29
    },
    {
        "relPath": "./data/clinical-trials/adam/adrs.csv",
        "path": "adrs.csv",
        "name": "adrs",
        "nRows": 404,
        "cols": [
            "USUBJID",
            "SITE",
            "SITEID",
            "AGE",
            "SEX",
            "RACE",
            "ARM",
            "ARMCD",
            "SBJTSTAT",
            "RFSTDTC",
            "RFENDTC",
            "RFENDY",
            "SAFFL",
            "SAFFN",
            "RANDDT",
            "RANDDY",
            "COMPLDT",
            "COMPLDY",
            "ANYAEFL",
            "ANYCMFL",
            "AVISIT",
            "AVISITN",
            "ADT",
            "ADY",
            "CNSRDT",
            "CNSRDY",
            "ADUR",
            "PARAMCAT",
            "PARAM",
            "AVALC",
            "AVAL",
            "ACOLOR"
        ],
        "nCols": 32
    },
    {
        "relPath": "./data/clinical-trials/adam/adsl.csv",
        "path": "adsl.csv",
        "name": "adsl",
        "nRows": 150,
        "cols": [
            "USUBJID",
            "SITE",
            "SITEID",
            "AGE",
            "SEX",
            "RACE",
            "ARM",
            "ARMCD",
            "SBJTSTAT",
            "RFSTDTC",
            "RFENDTC",
            "RFENDY",
            "SAFFL",
            "SAFFN",
            "RANDDT",
            "RANDDY",
            "COMPLDT",
            "COMPLDY",
            "ANYAEFL",
            "ANYCMFL"
        ],
        "nCols": 20
    },
    {
        "relPath": "./data/clinical-trials/adam/advs.csv",
        "path": "advs.csv",
        "name": "advs",
        "nRows": 3170,
        "cols": [
            "USUBJID",
            "SITE",
            "SITEID",
            "AGE",
            "SEX",
            "RACE",
            "ARM",
            "ARMCD",
            "SBJTSTAT",
            "RFSTDTC",
            "RFENDTC",
            "RFENDY",
            "SAFFL",
            "SAFFN",
            "RANDDT",
            "RANDDY",
            "COMPLDT",
            "COMPLDY",
            "ANYAEFL",
            "ANYCMFL",
            "AVISIT",
            "AVISITN",
            "ADT",
            "ADY",
            "PARAMCAT",
            "PARAM",
            "AVAL",
            "ANRLO",
            "ANRHI"
        ],
        "nCols": 29
    }
]